	czas	Si³a 1	Si³a 2	Odkszta³cenie	Uniwersalne	Pozycja
	[ms]	[N]	[N]	[V]	[V]	[mm]
	200	723.803	-282.898	0.825	0.119	-0.06
	400	279.057	-287.170	0.815	0.119	-0.02
	600	-706.362	-303.955	0.862	0.128	0.04
	800	-1595.855	-329.590	0.842	0.130	0.10
	1000	-2476.628	-359.192	0.828	0.129	0.16
	1200	-3300.717	-389.404	0.825	0.125	0.23
	1400	-4177.129	-420.227	0.843	0.127	0.30
	1600	-5297.716	-453.491	0.860	0.131	0.36
	1800	-6418.303	-490.112	0.843	0.136	0.43
	2000	-7700.219	-530.396	0.827	0.132	0.50
	2200	-8999.577	-575.867	0.856	0.133	0.56
	2400	-10320.735	-621.948	0.831	0.128	0.63
	2600	-11750.901	-670.166	0.848	0.126	0.70
	2800	-13098.221	-718.079	0.841	0.126	0.76
	3000	-14790.002	-771.790	0.781	0.123	0.83
	3200	-16791.361	-831.299	0.770	0.111	0.90
	3400	-18836.323	-898.438	0.809	0.108	0.96
	3600	-20802.801	-967.407	0.787	0.109	1.02
	3800	-22760.557	-1037.292	0.759	0.103	1.10
	4000	-24600.587	-1107.483	0.792	0.100	1.16
	4200	-26301.088	-1174.011	0.771	0.099	1.23
	4400	-27879.503	-1237.488	0.794	0.101	1.30
	4600	-29392.513	-1296.997	0.805	0.107	1.36
	4800	-30870.641	-1354.065	0.785	0.106	1.42
	5000	-32318.247	-1409.302	0.777	0.104	1.50
	5200	-33560.921	-1461.792	0.749	0.101	1.56
	5400	-34555.061	-1508.789	0.767	0.098	1.63
	5600	-35235.261	-1546.936	0.765	0.094	1.70
	5800	-35566.641	-1574.402	0.789	0.103	1.76
	6000	-35710.529	-1593.628	0.738	0.100	1.83
	6200	-35627.685	-1601.562	0.741	0.094	1.90
	6400	-35400.951	-1604.004	0.743	0.089	1.96
	6600	-35056.490	-1600.037	0.763	0.091	2.03
	6800	-34629.185	-1591.187	0.760	0.092	2.10
	7000	-34184.438	-1578.064	0.760	0.094	2.16
	7200	-33683.009	-1563.721	0.773	0.095	2.23
	7400	-33199.020	-1547.241	0.787	0.097	2.30
	7600	-32728.112	-1530.762	0.766	0.098	2.36
	7800	-32257.204	-1513.062	0.761	0.102	2.43
	8000	-31847.339	-1497.803	0.780	0.103	2.50
	8200	-31367.711	-1480.103	0.768	0.110	2.56
	8400	-30927.324	-1464.233	0.753	0.106	2.63
	8600	-30547.982	-1448.059	0.756	0.101	2.70
	8800	-30120.676	-1432.800	0.772	0.096	2.76
	9000	-29719.532	-1417.847	0.772	0.098	2.83
	9200	-29318.388	-1403.198	0.756	0.098	2.90
	9400	-28947.766	-1388.550	0.755	0.093	2.96
	9600	-28564.063	-1373.901	0.746	0.092	3.03
	9800	-28197.801	-1358.643	0.764	0.093	3.10
	10000	-27835.900	-1344.910	0.735	0.095	3.16
	10200	-27487.079	-1333.923	0.700	0.085	3.23
	10400	-27151.339	-1320.801	0.703	0.079	3.30
	10600	-26819.959	-1308.289	0.706	0.074	3.36
	10800	-26497.300	-1295.776	0.735	0.078	3.43
	11000	-26192.082	-1282.043	0.735	0.082	3.50
	11200	-25882.503	-1269.531	0.715	0.082	3.56
	11400	-25599.087	-1258.545	0.723	0.083	3.63
	11600	-25320.030	-1246.338	0.723	0.085	3.70
	11800	-25027.892	-1234.436	0.718	0.087	3.76
	12000	-24783.718	-1224.365	0.722	0.089	3.83
	12200	-24522.102	-1211.853	0.712	0.086	3.90
	12400	-24304.089	-1201.172	0.722	0.090	3.96
	12600	-24068.635	-1190.796	0.715	0.093	4.03
	12800	-23833.181	-1181.335	0.759	0.100	4.10
	13000	-23615.168	-1171.265	0.739	0.103	4.16
	13200	-23388.435	-1161.499	0.719	0.102	4.23
	13400	-23174.782	-1151.733	0.812	0.110	4.30
	13600	-22961.129	-1140.747	0.813	0.127	4.36
	13800	-22773.638	-1131.287	0.793	0.134	4.43
	14000	-22603.588	-1121.826	0.804	0.139	4.50
	14200	-22407.376	-1112.976	0.808	0.144	4.56
	14400	-22224.245	-1103.821	0.819	0.145	4.63
	14600	-22054.195	-1095.581	0.792	0.152	4.70
	14800	-21862.344	-1086.426	0.819	0.152	4.76
	15000	-21679.213	-1077.881	0.834	0.157	4.83
	15200	-21500.442	-1068.726	0.833	0.162	4.89
	15400	-21352.193	-1059.570	0.819	0.164	4.96
	15600	-21182.143	-1051.941	0.841	0.169	5.03
	15800	-21016.453	-1041.260	0.829	0.172	5.10
	16000	-20868.204	-1032.104	0.839	0.175	5.16
	16200	-20702.515	-1022.949	0.840	0.180	5.23
	16400	-20554.266	-1011.963	0.826	0.183	5.30
	16600	-20401.657	-1002.197	0.831	0.185	5.36
	16800	-20262.128	-991.821	0.824	0.188	5.43
	17000	-20126.960	-982.666	0.854	0.191	5.50
	17200	-19983.072	-972.900	0.875	0.201	5.56
	17400	-19878.425	-963.135	0.864	0.208	5.63
	17600	-19725.816	-956.726	0.865	0.211	5.70
	17800	-19586.288	-945.129	0.851	0.215	5.76
	18000	-19464.201	-935.364	0.865	0.219	5.83
	18200	-19342.113	-926.514	0.894	0.229	5.90
	18400	-19224.386	-917.664	0.884	0.234	5.96
	18600	-19089.218	-907.898	0.895	0.238	6.03
	18800	-18962.771	-898.743	0.898	0.246	6.10
	19000	-18836.323	-889.587	0.901	0.252	6.16
	19200	-18714.236	-878.906	0.904	0.258	6.23
	19400	-18618.310	-869.141	0.905	0.262	6.30
	19600	-18496.223	-858.765	0.904	0.269	6.36
	19800	-18413.378	-850.220	0.911	0.272	6.43
	20000	-18313.092	-840.454	0.913	0.276	6.50
	20200	-18204.086	-833.130	0.907	0.278	6.56
	20400	-18086.359	-823.975	0.906	0.281	6.63
	20600	-18051.476	-815.125	0.916	0.285	6.70
	20800	-18051.476	-808.716	0.916	0.290	6.76
	21000	-18016.594	-802.002	0.930	0.296	6.83
	21200	-17951.190	-794.983	0.942	0.303	6.90
	21400	-17894.507	-788.574	0.956	0.311	6.96
	21600	-17824.743	-782.166	0.954	0.318	7.03
	21800	-17759.339	-775.757	0.968	0.319	7.10
	22000	-17711.376	-769.653	0.975	0.325	7.16
	22200	-17641.612	-763.550	0.979	0.330	7.23
	22400	-17598.009	-757.751	0.974	0.334	7.30
	22600	-17515.164	-751.038	0.970	0.335	7.36
	22800	-17449.761	-744.324	0.983	0.339	7.43
	23000	-17388.717	-737.305	1.019	0.351	7.50
	23200	-17336.394	-730.896	1.002	0.358	7.56
	23400	-17292.791	-723.267	1.013	0.363	7.63
	23600	-17209.946	-715.332	1.004	0.368	7.70
	23800	-17157.623	-707.397	1.018	0.372	7.76
	24000	-17109.660	-701.294	1.014	0.372	7.83
	24200	-17061.697	-694.580	1.026	0.381	7.90
	24400	-17031.176	-689.087	1.013	0.380	7.96
	24600	-16965.772	-682.373	1.028	0.384	8.03
	24800	-16961.411	-677.490	1.037	0.388	8.10
	25000	-16939.610	-671.692	1.039	0.394	8.16
	25200	-16917.809	-667.114	1.040	0.399	8.23
	25400	-16952.691	-662.842	1.047	0.402	8.30
	25600	-16939.610	-658.875	1.051	0.404	8.36
	25800	-16957.051	-655.518	1.052	0.407	8.43
	26000	-16965.772	-652.466	1.056	0.408	8.49
	26200	-16943.970	-648.804	1.043	0.412	8.56
	26400	-16943.970	-645.142	1.001	0.405	8.63
	26600	-16891.647	-640.869	1.006	0.399	8.70
	26800	-16843.684	-636.597	1.022	0.398	8.76
	27000	-16813.163	-631.104	1.004	0.399	8.83
	27200	-16769.560	-626.526	1.022	0.400	8.90
	27400	-16686.715	-621.338	1.032	0.406	8.96
	27600	-16355.335	-613.403	1.025	0.404	9.03
	27800	-15914.949	-599.365	1.030	0.407	9.10
	28000	-15910.589	-588.989	1.023	0.409	9.16
	28200	-15932.390	-582.886	1.034	0.409	9.23
	28400	-15954.191	-579.224	1.025	0.413	9.30
	28600	-15954.191	-576.782	1.038	0.417	9.36
	28800	-15980.353	-574.951	1.042	0.420	9.43
	29000	-16006.514	-572.815	1.037	0.418	9.49
	29200	-16019.595	-572.510	1.055	0.417	9.56
	29400	-16054.477	-571.594	1.073	0.422	9.63
	29600	-16058.838	-574.646	1.058	0.424	9.70
	29800	-16054.477	-572.510	1.097	0.431	9.76
	30000	-16080.639	-573.425	1.130	0.445	9.83
	30200	-16089.359	-573.120	1.135	0.455	9.90
	30400	-16093.720	-572.815	1.122	0.461	9.96
	30600	-16115.521	-572.815	1.118	0.459	10.03
	30800	-16124.242	-573.120	1.113	0.459	10.10
	31000	-16115.521	-571.289	1.110	0.456	10.16
	31200	-16102.440	-573.120	1.111	0.452	10.23
	31400	-16084.999	-573.120	1.102	0.452	10.30
	31600	-16084.999	-574.951	1.115	0.450	10.36
	31800	-16084.999	-572.510	1.119	0.450	10.43
	32000	-16071.918	-573.730	1.106	0.450	10.50
	32200	-16041.397	-573.425	1.105	0.445	10.56
	32400	-16037.036	-572.510	1.115	0.443	10.63
	32600	-15971.632	-573.730	1.121	0.447	10.70
	32800	-15928.030	-573.120	1.121	0.446	10.76
	33000	-15888.787	-572.205	1.029	0.430	10.83
	33200	-15836.464	-572.205	0.991	0.414	10.90
	33400	-15797.222	-570.984	0.999	0.396	10.96
	33600	-15714.377	-570.679	0.954	0.387	11.03
	33800	-15618.451	-571.289	1.046	0.390	11.10
	34000	-15526.886	-570.068	0.963	0.386	11.16
	34200	-15444.041	-568.848	0.957	0.374	11.23
	34400	-15378.637	-567.932	0.981	0.367	11.30
	34600	-15256.550	-566.101	0.979	0.367	11.36
	34800	-15156.264	-564.880	0.981	0.365	11.43
	35000	-15047.257	-563.965	0.952	0.358	11.50
	35200	-14942.611	-565.186	0.966	0.353	11.56
	35400	-14859.766	-562.744	0.984	0.356	11.63
	35600	-14755.120	-562.439	0.975	0.353	11.70
	35800	-14654.834	-561.523	0.962	0.349	11.76
	36000	-14558.908	-561.218	0.936	0.339	11.83
	36200	-14449.902	-559.387	0.902	0.333	11.90
	36400	-14380.138	-559.692	0.886	0.317	11.96
	36600	-14271.131	-559.692	0.873	0.306	12.03
	36800	-14188.286	-559.692	0.895	0.302	12.10
	37000	-14101.081	-558.472	0.897	0.302	12.16
	37200	-14013.876	-559.082	0.900	0.296	12.23
	37400	-13931.031	-559.387	0.900	0.297	12.30
	37600	-13822.024	-560.608	0.892	0.293	12.36
	37800	-13752.260	-562.134	0.884	0.287	12.43
	38000	-13673.775	-562.439	0.868	0.284	12.50
	38200	-13599.651	-562.134	0.885	0.279	12.56
	38400	-13521.166	-562.134	0.876	0.276	12.63
	38600	-13425.241	-563.965	0.856	0.271	12.70
	38800	-13359.837	-563.049	0.868	0.269	12.76
	39000	-13285.712	-563.049	0.903	0.267	12.83
	39200	-13202.867	-565.186	0.915	0.275	12.90
	39400	-13141.824	-566.406	0.893	0.275	12.96
	39600	-13050.258	-569.153	0.919	0.276	13.03
	39800	-12984.854	-571.289	0.917	0.277	13.10
	40000	-12910.730	-575.256	0.901	0.268	13.16
	40200	-12849.686	-578.613	0.915	0.267	13.23
	40400	-12766.841	-582.275	0.922	0.263	13.30
	40600	-12727.599	-586.548	0.902	0.260	13.36
	40800	-12718.878	-588.989	0.875	0.249	13.43
	41000	-12692.717	-592.957	0.905	0.245	13.50
	41200	-12644.754	-597.534	0.920	0.244	13.56
	41400	-12614.232	-600.281	0.929	0.248	13.63
	41600	-12557.549	-604.248	0.911	0.248	13.70
	41800	-12509.586	-608.826	0.915	0.246	13.76
	42000	-12457.263	-614.319	0.915	0.240	13.83
	42200	-12396.219	-619.202	0.897	0.235	13.90
	42400	-12356.977	-623.474	0.898	0.230	13.96
	42600	-12282.852	-627.136	0.905	0.226	14.03
	42800	-12226.169	-631.409	0.891	0.221	14.10
	43000	-12182.566	-633.850	0.911	0.219	14.16
	43200	-12125.883	-635.986	0.923	0.222	14.23
	43400	-12077.920	-636.902	0.910	0.219	14.30
	43600	-11999.436	-638.123	0.919	0.221	14.36
	43800	-11955.833	-640.259	0.895	0.218	14.43
	44000	-11899.150	-641.174	0.914	0.212	14.50
	44200	-11833.746	-643.311	0.911	0.214	14.56
	44400	-11777.062	-645.447	0.914	0.211	14.63
	44600	-11716.019	-647.888	0.905	0.208	14.70
	44800	-11663.696	-651.245	0.864	0.197	14.76
	45000	-11615.733	-653.381	0.892	0.189	14.83
	45200	-11559.049	-656.433	0.892	0.190	14.90
	45400	-11502.366	-657.959	0.915	0.194	14.96
	45600	-11441.322	-659.485	0.924	0.195	15.03
	45800	-11393.359	-663.147	0.919	0.193	15.10
	46000	-11327.956	-665.283	0.904	0.188	15.16
	46200	-11297.434	-667.725	0.875	0.180	15.23
	46400	-11245.111	-669.250	0.856	0.174	15.30
	46600	-11179.707	-671.997	0.844	0.164	15.36
	46800	-11114.303	-673.218	0.838	0.156	15.43
	47000	-11057.619	-674.438	0.896	0.157	15.50
	47200	-11014.017	-675.049	0.878	0.159	15.56
	47400	-10966.054	-675.049	0.889	0.162	15.63
	47600	-10887.569	-676.270	0.925	0.169	15.70
	47800	-10883.209	-678.711	0.898	0.171	15.76
	48000	-10896.290	-680.847	0.915	0.169	15.83
	48200	-10913.731	-682.373	0.927	0.169	15.90
	48400	-10874.488	-685.120	0.924	0.173	15.96
	48600	-10822.165	-686.951	0.910	0.171	16.03
	48800	-10769.842	-688.477	0.918	0.170	16.10
	49000	-10748.041	-690.308	0.909	0.170	16.16
	49200	-10708.799	-690.308	0.945	0.175	16.23
	49400	-10639.034	-690.613	0.972	0.180	16.30
	49600	-10577.991	-691.223	0.960	0.184	16.36
	49800	-10665.196	-693.054	0.947	0.183	16.43
	50000	-10721.879	-694.580	0.932	0.181	16.50
	50200	-10774.202	-698.853	0.922	0.178	16.56
	50400	-10796.004	-701.599	0.876	0.169	16.63
	50600	-10796.004	-702.515	0.899	0.164	16.70
	50800	-10796.004	-704.346	0.898	0.163	16.76
	51000	-10791.644	-705.566	0.924	0.168	16.83
	51200	-10804.724	-706.787	0.904	0.170	16.90
	51400	-10787.283	-708.008	0.927	0.170	16.96
	51600	-10796.004	-708.618	0.874	0.156	17.03
	51800	-10787.283	-709.229	0.821	0.144	17.10
	52000	-10765.482	-710.144	0.816	0.135	17.16
	52200	-10787.283	-710.144	0.812	0.127	17.23
	52400	-10774.202	-710.144	0.769	0.117	17.30
	52600	-10708.799	-710.144	0.773	0.110	17.36
	52800	-10673.917	-709.229	0.833	0.115	17.43
	53000	-10695.718	-709.229	0.791	0.120	17.50
	53200	-10695.718	-708.313	0.858	0.128	17.56
	53400	-10669.556	-708.008	0.844	0.134	17.63
	53600	-10665.196	-708.618	0.849	0.135	17.70
	53800	-10652.115	-707.397	0.833	0.135	17.76
	54000	-10639.034	-708.008	0.813	0.132	17.83
	54200	-10634.674	-707.397	0.845	0.131	17.90
	54400	-10586.711	-705.872	0.818	0.128	17.96
	54600	-10569.270	-704.956	0.789	0.120	18.03
	54800	-10560.550	-703.735	0.833	0.120	18.10
	55000	-10512.587	-702.820	0.836	0.126	18.16
	55200	-10512.587	-701.294	0.832	0.128	18.23
	55400	-10482.065	-701.599	0.818	0.128	18.30
	55600	-10477.705	-700.684	0.782	0.124	18.36
	55800	-10429.742	-699.158	0.796	0.120	18.43
	56000	-10403.580	-699.158	0.806	0.118	18.50
	56200	-10438.462	-697.937	0.801	0.119	18.56
	56400	-10373.059	-697.021	0.820	0.121	18.63
	56600	-10381.779	-697.021	0.812	0.124	18.70
	56800	-10377.419	-695.801	0.797	0.121	18.76
	57000	-10421.021	-695.190	0.771	0.115	18.83
	57200	-10386.139	-695.496	0.786	0.117	18.90
	57400	-10368.698	-694.275	0.790	0.116	18.96
	57600	-10355.618	-693.665	0.785	0.117	19.03
	57800	-10351.257	-692.749	0.785	0.117	19.10
	58000	-10333.816	-691.528	0.800	0.117	19.16
	58200	-10325.096	-690.308	0.778	0.120	19.23
	58400	-10290.214	-687.561	0.786	0.122	19.30
	58600	-10434.102	-686.340	0.749	0.122	19.36
	58800	-10543.109	-687.866	0.793	0.122	19.43
	59000	-10604.152	-690.002	0.770	0.125	19.50
	59200	-10739.320	-693.054	0.788	0.126	19.56
	59400	-10883.209	-695.496	0.784	0.127	19.63
	59600	-11035.818	-698.242	0.779	0.126	19.70
	59800	-11170.986	-701.294	0.790	0.129	19.76
	60000	-11362.838	-703.430	0.786	0.132	19.83
	60200	-11545.969	-708.923	0.782	0.132	19.90
	60400	-11668.056	-713.806	0.802	0.132	19.96
	60600	-11807.584	-716.553	0.811	0.139	20.03
	60800	-11894.789	-717.773	0.820	0.147	20.10
	61000	-11968.914	-718.384	0.802	0.147	20.16
	61200	-12077.920	-719.604	0.810	0.150	20.23
	61400	-12117.163	-721.130	0.812	0.153	20.30
	61600	-12165.125	-720.825	0.813	0.157	20.36
	61800	-12217.449	-720.215	0.805	0.158	20.43
	62000	-12261.051	-719.910	0.792	0.160	20.50
	62200	-12330.815	-718.079	0.803	0.162	20.56
	62400	-12339.536	-716.248	0.912	0.181	20.63
	62600	-12387.499	-714.111	0.898	0.200	20.70
	62800	-12483.424	-713.806	0.907	0.209	20.76
	63000	-12596.791	-712.280	0.900	0.215	20.83
	63200	-12740.680	-712.585	0.868	0.217	20.90
	63400	-12832.245	-712.585	0.877	0.213	20.96
	63600	-12897.649	-712.585	0.878	0.215	21.03
	63800	-12958.693	-712.280	0.885	0.217	21.10
	64000	-13024.097	-711.365	0.887	0.220	21.16
	64200	-13111.302	-709.534	0.886	0.226	21.23
	64400	-13163.625	-709.839	0.882	0.227	21.30
	64600	-13263.911	-708.313	0.894	0.229	21.36
	64800	-13351.116	-708.008	0.900	0.237	21.43
	65000	-13416.520	-705.566	0.904	0.242	21.50
	65200	-13516.806	-704.346	0.908	0.245	21.56
	65400	-13560.409	-702.820	0.898	0.250	21.63
	65600	-13608.371	-699.158	0.914	0.254	21.70
	65800	-13638.893	-696.411	0.909	0.257	21.76
	66000	-13691.216	-693.359	0.910	0.262	21.83
	66200	-13752.260	-689.392	0.916	0.267	21.90
	66400	-13747.900	-684.814	0.928	0.273	21.96
	66600	-13778.422	-681.152	0.925	0.278	22.03
	66800	-13795.863	-677.795	0.931	0.280	22.10
	67000	-13808.943	-674.438	0.937	0.286	22.16
	67200	-13843.826	-669.556	0.952	0.294	22.23
	67400	-13830.745	-664.978	0.939	0.300	22.30
	67600	-13839.465	-661.621	0.953	0.300	22.36
	67800	-13830.745	-657.959	0.959	0.306	22.43
	68000	-13865.627	-654.297	0.964	0.312	22.50
	68200	-13878.708	-649.414	0.978	0.319	22.56
	68400	-13852.546	-644.836	0.962	0.321	22.63
	68600	-13874.347	-641.479	0.953	0.320	22.70
	68800	-13852.546	-637.817	0.961	0.324	22.76
	69000	-13869.987	-635.681	0.973	0.327	22.83
	69200	-13896.149	-633.545	0.971	0.328	22.90
	69400	-13874.347	-630.493	0.972	0.331	22.96
	69600	-13883.068	-626.526	0.966	0.333	23.03
	69800	-13900.509	-623.779	0.994	0.338	23.10
	70000	-13883.068	-620.422	0.992	0.348	23.16
	70200	-13913.590	-615.540	1.004	0.355	23.23
	70400	-13917.950	-610.352	1.000	0.359	23.30
	70600	-13935.391	-605.774	1.014	0.367	23.36
	70800	-13961.553	-602.722	1.025	0.376	23.43
	71000	-13992.074	-599.060	1.027	0.380	23.50
	71200	-14005.155	-595.093	1.023	0.385	23.56
	71400	-14013.876	-590.515	1.062	0.391	23.63
	71600	-14022.596	-586.853	1.068	0.399	23.70
	71800	-14022.596	-582.275	1.045	0.400	23.76
	72000	-14053.118	-580.444	1.061	0.404	23.83
	72200	-14096.721	-577.087	1.066	0.408	23.90
	72400	-14074.919	-573.425	1.088	0.417	23.96
	72600	-14114.162	-570.374	1.069	0.421	24.03
	72800	-14109.801	-566.711	1.075	0.421	24.10
	73000	-14122.882	-563.660	1.070	0.423	24.16
	73200	-14188.286	-561.218	1.068	0.422	24.23
	73400	-14197.007	-558.472	1.075	0.424	24.30
	73600	-14244.969	-556.335	1.070	0.426	24.36
	73800	-14284.212	-554.504	1.104	0.433	24.43
	74000	-14297.293	-552.673	1.100	0.439	24.50
	74200	-14345.255	-550.232	1.099	0.443	24.56
	74400	-14349.616	-547.791	1.095	0.446	24.63
	74600	-14358.336	-545.349	1.099	0.447	24.70
	74800	-14397.579	-542.603	1.105	0.447	24.76
	75000	-14406.299	-540.771	1.103	0.449	24.83
	75200	-14428.100	-538.940	1.117	0.453	24.90
	75400	-14449.902	-536.804	1.124	0.454	24.96
	75600	-14445.541	-534.363	1.140	0.460	25.03
	75800	-14462.982	-532.227	1.143	0.467	25.10
	76000	-14510.945	-529.480	1.137	0.472	25.16
	76200	-14528.386	-527.649	1.135	0.475	25.23
	76400	-14545.827	-525.513	1.134	0.476	25.30
	76600	-14580.709	-523.987	1.141	0.476	25.36
	76800	-14585.070	-523.071	1.133	0.476	25.43
	77000	-14624.312	-523.071	1.140	0.476	25.50
	77200	-14624.312	-521.240	1.141	0.478	25.56
	77400	-14650.474	-520.630	1.140	0.480	25.63
	77600	-14694.076	-520.020	1.147	0.483	25.70
	77800	-14689.716	-520.630	1.150	0.485	25.76
	78000	-14746.399	-520.630	1.141	0.485	25.83
	78200	-14768.201	-521.851	1.144	0.482	25.90
	78400	-14772.561	-523.987	1.152	0.478	25.96
	78600	-14859.766	-526.123	1.128	0.474	26.03
	78800	-14881.567	-528.564	1.115	0.468	26.10
	79000	-14942.611	-531.311	1.133	0.466	26.16
	79200	-14986.214	-529.785	1.119	0.465	26.23
	79400	-15016.735	-531.921	1.148	0.466	26.30
	79600	-15099.580	-534.363	1.127	0.463	26.36
	79800	-15095.220	-536.194	1.091	0.461	26.43
	80000	-15147.543	-538.025	1.143	0.462	26.50
	80200	-15204.227	-538.330	1.141	0.465	26.56
	80400	-15204.227	-540.771	1.146	0.467	26.63
	80600	-15260.910	-543.213	1.143	0.464	26.70
	80800	-15291.432	-545.654	1.129	0.465	26.76
	81000	-15356.836	-549.927	1.147	0.465	26.83
	81200	-15365.556	-553.589	1.136	0.462	26.90
	81400	-15409.159	-557.556	1.117	0.458	26.96
	81600	-15448.401	-562.134	1.120	0.448	27.03
	81800	-15483.283	-567.627	1.117	0.443	27.10
	82000	-15535.606	-573.730	1.116	0.438	27.16
	82200	-15579.209	-579.834	1.122	0.433	27.23
	82400	-15587.930	-585.938	1.118	0.430	27.30
	82600	-15631.532	-592.651	1.113	0.424	27.36
	82800	-15679.495	-597.839	1.120	0.422	27.43
	83000	-15749.259	-602.722	1.121	0.421	27.50
	83200	-15779.781	-607.910	1.122	0.418	27.56
	83400	-15788.501	-614.014	1.108	0.415	27.63
	83600	-15832.104	-620.728	1.116	0.411	27.70
	83800	-15866.986	-627.441	1.107	0.406	27.76
	84000	-15923.670	-635.376	1.102	0.399	27.83
	84200	-15967.272	-642.395	1.115	0.389	27.90
	84400	-15989.073	-648.804	1.036	0.376	27.96
	84600	-16037.036	-654.907	1.056	0.367	28.03
	84800	-16080.639	-661.621	1.047	0.362	28.10
	85000	-16150.403	-667.725	1.065	0.361	28.16
	85200	-16194.006	-675.659	1.046	0.357	28.23
	85400	-16224.527	-683.289	1.043	0.351	28.30
	85600	-16307.372	-692.139	1.053	0.347	28.36
	85800	-16368.416	-700.378	1.041	0.341	28.43
	86000	-16503.584	-708.923	1.063	0.338	28.50
	86200	-16625.671	-717.773	1.047	0.337	28.56
	86400	-16739.038	-729.370	1.038	0.331	28.63
	86600	-17044.256	-741.882	1.021	0.323	28.70
	86800	-17270.990	-757.446	1.053	0.316	28.76
	87000	-17532.605	-773.621	1.035	0.312	28.83
	87200	-17702.656	-786.743	1.016	0.305	28.90
	87400	-17863.985	-800.171	1.008	0.298	28.96
	87600	-18038.396	-812.683	1.030	0.295	29.03
	87800	-18186.645	-825.195	1.038	0.291	29.10
	88000	-18378.496	-836.182	1.002	0.283	29.16
	88200	-18478.782	-846.863	0.950	0.268	29.23
	88400	-18644.472	-856.934	0.953	0.257	29.30
	88600	-18762.199	-867.004	0.962	0.246	29.36
	88800	-18893.007	-876.770	0.991	0.253	29.43
	89000	-19071.777	-885.925	0.997	0.255	29.50
	89200	-19158.982	-893.555	0.975	0.254	29.56
	89400	-19289.790	-903.320	0.978	0.249	29.63
	89600	-19398.797	-913.086	0.974	0.245	29.70
	89800	-19533.965	-922.241	0.982	0.240	29.76
	90000	-19673.493	-930.176	0.980	0.239	29.83
	90200	-19773.779	-939.636	0.977	0.235	29.90
	90400	-19878.425	-947.266	0.955	0.230	29.96
	90600	-19996.152	-955.505	0.959	0.226	30.03
	90800	-20135.681	-963.135	0.962	0.226	30.10
	91000	-20257.768	-970.459	0.965	0.225	30.16
	91200	-20349.333	-976.257	0.953	0.223	30.23
	91400	-20436.539	-984.497	0.934	0.215	30.30
	91600	-20554.266	-993.652	0.929	0.208	30.36
	91800	-20632.750	-1001.282	0.926	0.208	30.43
	92000	-20785.359	-1008.911	0.933	0.208	30.50
	92200	-20850.763	-1015.625	0.940	0.207	30.56
	92400	-20964.130	-1023.560	0.930	0.202	30.63
	92600	-21033.894	-1031.189	0.929	0.200	30.70
	92800	-21203.944	-1038.818	0.907	0.190	30.76
	93000	-21491.722	-1047.974	0.920	0.186	30.83
	93200	-21687.933	-1060.181	0.905	0.182	30.90
	93400	-21884.145	-1070.557	0.901	0.179	30.96
	93600	-22045.475	-1080.933	0.919	0.178	31.03
	93800	-22254.767	-1090.698	0.907	0.175	31.10
	94000	-22477.140	-1101.074	0.908	0.174	31.16
	94200	-22616.669	-1110.229	0.909	0.174	31.23
	94400	-22791.079	-1119.995	0.908	0.173	31.30
	94600	-22969.850	-1130.066	0.898	0.168	31.36
	94800	-23096.297	-1139.221	0.906	0.165	31.43
	95000	-23288.149	-1146.851	0.876	0.161	31.50
	95200	-23388.435	-1154.785	0.876	0.157	31.56
	95400	-23514.882	-1160.889	0.886	0.155	31.63
	95600	-23615.168	-1167.908	0.878	0.154	31.70
	95800	-23802.659	-1175.232	0.875	0.154	31.76
	96000	-24138.399	-1181.641	0.870	0.150	31.83
	96200	-24417.456	-1191.711	0.875	0.152	31.90
	96400	-24670.351	-1202.698	0.872	0.154	31.96
	96600	-24879.644	-1211.243	0.878	0.155	32.03
	96800	-25071.495	-1219.177	0.871	0.153	32.10
	97000	-25285.148	-1228.333	0.873	0.152	32.16
	97200	-25402.875	-1235.962	0.821	0.150	32.23
	97400	-25572.925	-1241.150	0.810	0.142	32.30
	97600	-25721.174	-1248.474	0.819	0.136	32.36
	97800	-25886.864	-1253.052	0.815	0.132	32.43
	98000	-26030.752	-1258.240	0.809	0.132	32.49
	98200	-26174.641	-1262.207	0.804	0.131	32.56
	98400	-26301.088	-1267.395	0.811	0.131	32.63
	98600	-26549.623	-1272.888	0.790	0.131	32.70
	98800	-26789.438	-1280.518	0.780	0.127	32.76
	99000	-27051.053	-1287.842	0.825	0.129	32.83
	99200	-27216.743	-1293.945	0.813	0.135	32.90
	99400	-27412.955	-1300.049	0.822	0.139	32.96
	99600	-27591.725	-1304.932	0.818	0.142	33.03
	99800	-27761.775	-1310.425	0.828	0.146	33.10
	100000	-27962.347	-1314.392	0.806	0.146	33.16
	100200	-28075.714	-1318.054	0.803	0.144	33.23
	100400	-28223.963	-1321.716	0.790	0.141	33.30
	100600	-28363.491	-1324.463	0.803	0.142	33.36
	100800	-28511.740	-1325.073	0.778	0.147	33.43
	101000	-28664.349	-1325.378	0.830	0.154	33.49
	101200	-28786.437	-1326.599	0.803	0.158	33.56
	101400	-28943.406	-1327.515	0.802	0.161	33.63
	101600	-29122.177	-1328.430	0.817	0.164	33.70
	101800	-29270.425	-1331.177	0.794	0.168	33.76
	102000	-29427.395	-1331.482	0.836	0.176	33.83
	102200	-29580.004	-1332.703	0.840	0.185	33.90
	102400	-29728.253	-1333.008	0.863	0.196	33.96
	102600	-29859.061	-1333.008	0.861	0.209	34.03
	102800	-29968.067	-1333.008	0.863	0.213	34.10
	103000	-30120.676	-1332.703	0.862	0.217	34.16
	103200	-30194.801	-1331.787	0.870	0.221	34.23
	103400	-30316.888	-1332.703	0.835	0.220	34.30
	103600	-30399.733	-1332.092	0.844	0.220	34.36
	103800	-30508.739	-1332.092	0.847	0.222	34.43
	104000	-30617.746	-1331.482	0.853	0.225	34.49
	104200	-30661.348	-1329.956	0.860	0.228	34.56
	104400	-30748.554	-1327.820	0.846	0.231	34.63
	104600	-30822.678	-1326.599	0.849	0.234	34.70
	104800	-30901.163	-1325.073	0.869	0.237	34.76
	105000	-30966.567	-1321.106	0.853	0.242	34.83
	105200	-31031.970	-1318.665	0.855	0.244	34.90
	105400	-31093.014	-1316.528	0.873	0.252	34.96
	105600	-31162.778	-1313.171	0.871	0.259	35.03
	105800	-31232.542	-1310.120	0.851	0.261	35.10
	106000	-31302.307	-1306.458	0.891	0.268	35.16
	106200	-31337.189	-1302.490	0.905	0.275	35.23
	106400	-31372.071	-1299.133	0.886	0.282	35.30
	106600	-31433.114	-1296.082	0.897	0.288	35.36
	106800	-31481.077	-1292.114	0.900	0.290	35.43
	107000	-31524.680	-1288.757	0.873	0.286	35.49
	107200	-31550.841	-1286.011	0.885	0.286	35.56
	107400	-31563.922	-1284.180	0.897	0.290	35.63
	107600	-31616.245	-1282.349	0.893	0.292	35.70
	107800	-31611.885	-1280.823	0.890	0.292	35.76
	108000	-31655.488	-1277.771	0.905	0.297	35.83
	108200	-31716.531	-1276.245	0.921	0.305	35.90
	108400	-31751.413	-1275.635	0.944	0.319	35.96
	108600	-31808.097	-1273.804	0.939	0.325	36.03
	108800	-31825.538	-1271.667	0.931	0.325	36.10
	109000	-31860.420	-1269.226	0.929	0.326	36.16
	109200	-31847.339	-1268.005	0.941	0.328	36.23
	109400	-31829.898	-1264.343	0.942	0.334	36.30
	109600	-31825.538	-1260.986	0.936	0.335	36.36
	109800	-31812.457	-1257.019	0.947	0.340	36.43
	110000	-31799.376	-1253.052	0.965	0.346	36.49
	110200	-31755.774	-1248.779	0.952	0.352	36.56
	110400	-31699.090	-1244.812	0.962	0.353	36.63
	110600	-31659.848	-1239.929	0.955	0.352	36.70
	110800	-31594.444	-1235.657	0.970	0.354	36.76
	111000	-31533.400	-1229.858	0.976	0.358	36.83
	111200	-31450.555	-1225.281	0.949	0.357	36.90
	111400	-31358.990	-1220.398	0.973	0.359	36.96
	111600	-31271.785	-1216.125	0.982	0.364	37.03
	111800	-31215.101	-1209.717	0.970	0.370	37.10
	112000	-31093.014	-1202.087	1.010	0.373	37.16
	112200	-30975.287	-1196.594	0.976	0.378	37.23
	112400	-30879.361	-1189.880	0.989	0.380	37.30
	112600	-30765.995	-1184.082	0.989	0.381	37.36
	112800	-30691.870	-1177.673	0.985	0.381	37.43
	113000	-30561.062	-1170.044	1.000	0.387	37.49
	113200	-30408.453	-1163.025	0.995	0.390	37.56
	113400	-30286.366	-1157.227	0.959	0.383	37.63
	113600	-30155.558	-1149.902	0.954	0.374	37.70
	113800	-30033.471	-1142.883	0.949	0.372	37.76
	114000	-29907.023	-1136.169	0.952	0.371	37.83
	114200	-29732.613	-1128.235	0.945	0.367	37.90
	114400	-29597.445	-1121.216	0.968	0.374	37.96
	114600	-29440.476	-1114.197	0.936	0.369	38.03
	114800	-29327.109	-1105.957	0.945	0.367	38.10
	115000	-29178.860	-1098.022	0.948	0.369	38.16
	115200	-28991.369	-1090.088	0.944	0.371	38.23
	115400	-28856.201	-1082.153	0.956	0.373	38.30
	115600	-28703.592	-1073.914	0.974	0.378	38.36
	115800	-28568.424	-1066.284	0.992	0.385	38.43
	116000	-28415.814	-1058.960	0.988	0.390	38.49
	116200	-28245.764	-1051.331	0.979	0.392	38.56
	116400	-28080.074	-1043.091	0.972	0.391	38.63
	116600	-27940.546	-1035.461	0.976	0.390	38.70
	116800	-27774.856	-1028.748	0.992	0.391	38.76
	117000	-27600.446	-1021.118	0.992	0.397	38.83
	117200	-27443.477	-1013.184	1.005	0.399	38.90
	117400	-27255.985	-1005.554	0.998	0.403	38.96
	117600	-27081.575	-998.230	1.029	0.407	39.03
	117800	-26942.047	-989.990	1.038	0.415	39.10
	118000	-26732.754	-982.056	1.046	0.421	39.16
	118200	-26545.263	-975.037	1.042	0.425	39.23
	118400	-26383.933	-968.018	1.033	0.425	39.30
	118600	-26179.001	-960.083	1.025	0.425	39.36
	118800	-26035.113	-951.843	1.037	0.425	39.43
	119000	-25851.982	-944.824	1.044	0.427	39.49
	119200	-25651.410	-937.195	1.042	0.428	39.56
	119400	-25468.279	-929.871	1.042	0.430	39.63
	119600	-25298.229	-922.241	1.052	0.434	39.70
	119800	-25106.377	-914.917	1.027	0.430	39.76
	120000	-24905.805	-907.593	1.045	0.430	39.83
	120200	-24731.395	-901.489	1.031	0.427	39.90
	120400	-24552.624	-894.775	1.010	0.420	39.96
	120600	-24352.052	-888.062	1.014	0.418	40.03
	120800	-24199.443	-881.348	1.010	0.416	40.10
	121000	-24011.952	-874.939	1.025	0.416	40.16
	121200	-23820.100	-868.530	1.026	0.419	40.23
	121400	-23658.771	-861.511	1.040	0.421	40.30
	121600	-23484.360	-855.408	1.028	0.421	40.36
	121800	-23314.310	-848.999	1.042	0.422	40.43
	122000	-23144.260	-843.201	1.037	0.424	40.49
	122200	-22982.931	-837.402	1.044	0.425	40.56
	122400	-22799.800	-831.299	1.042	0.425	40.63
	122600	-22660.271	-826.416	1.035	0.423	40.70
	122800	-22503.302	-820.007	1.039	0.422	40.76
	123000	-22315.811	-814.209	1.035	0.419	40.83
	123200	-22163.202	-809.021	1.040	0.419	40.90
	123400	-22019.313	-803.223	1.055	0.422	40.96
	123600	-21853.623	-798.340	1.049	0.422	41.03
	123800	-21714.095	-793.457	1.043	0.418	41.10
	124000	-21561.486	-789.490	1.062	0.420	41.16
	124200	-21395.796	-783.997	1.071	0.422	41.23
	124400	-21238.827	-778.198	1.058	0.423	41.30
	124600	-21099.298	-774.841	1.044	0.417	41.36
	124800	-20977.211	-770.874	1.059	0.417	41.43
	125000	-20798.440	-766.602	0.999	0.415	41.50
	125200	-20671.993	-762.939	0.974	0.397	41.56
	125400	-20532.464	-760.193	0.971	0.385	41.63
	125600	-20375.495	-756.531	1.005	0.383	41.70
	125800	-20253.408	-753.479	1.007	0.386	41.76
	126000	-20109.519	-750.122	1.035	0.387	41.83
	126200	-19961.270	-747.986	1.010	0.389	41.90
	126400	-19826.102	-746.155	1.011	0.385	41.96
	126600	-19695.294	-744.629	0.974	0.374	42.03
	126800	-19581.928	-743.713	0.966	0.364	42.10
	127000	-19424.958	-738.525	1.007	0.366	42.16
	127200	-19285.430	-737.000	1.002	0.369	42.23
	127400	-19180.784	-734.558	0.973	0.362	42.30
	127600	-19041.255	-733.643	0.997	0.359	42.36
	127800	-18932.249	-732.727	1.085	0.375	42.43
	128000	-18801.441	-731.812	1.064	0.386	42.50
	128200	-18670.633	-732.117	1.064	0.386	42.56
	128400	-18531.105	-733.032	1.056	0.381	42.63
	128600	-18422.099	-733.032	1.044	0.378	42.70
	128800	-18339.254	-733.948	1.049	0.375	42.76
	129000	-18186.645	-734.253	1.053	0.371	42.83
	129200	-18068.917	-734.558	1.045	0.368	42.90
	129400	-17946.830	-735.474	1.007	0.360	42.96
	129600	-17837.824	-734.558	1.009	0.351	43.03
	129800	-17754.979	-735.474	1.014	0.344	43.10
	130000	-17615.450	-735.474	1.026	0.345	43.16
	130200	-17515.164	-735.779	1.051	0.350	43.23
	130400	-17406.158	-736.389	1.031	0.351	43.30
	130600	-17292.791	-737.305	1.023	0.342	43.36
	130800	-17205.586	-738.525	1.002	0.335	43.43
	131000	-17096.579	-740.051	1.015	0.331	43.50
	131200	-17000.654	-741.882	1.010	0.325	43.56
	131400	-16869.846	-743.408	1.017	0.320	43.63
	131600	-16800.082	-745.239	1.015	0.317	43.70
	131800	-16725.957	-747.681	0.995	0.310	43.76
	132000	-16582.069	-748.596	0.985	0.306	43.83
	132200	-16507.944	-750.122	0.985	0.297	43.90
	132400	-16420.739	-752.563	0.979	0.291	43.96
	132600	-16320.453	-755.310	0.963	0.282	44.03
	132800	-16246.329	-756.836	0.963	0.277	44.10
	133000	-16132.962	-758.362	0.961	0.273	44.16
	133200	-16045.757	-758.667	0.942	0.268	44.23
	133400	-15949.831	-758.057	0.952	0.266	44.30
	133600	-15866.986	-757.446	0.946	0.264	44.36
	133800	-15823.384	-756.836	0.943	0.259	44.43
	134000	-15705.657	-756.836	0.932	0.256	44.50
	134200	-15618.451	-757.446	0.948	0.253	44.56
	134400	-15592.290	-756.836	0.942	0.251	44.63
	134600	-15832.104	-761.414	0.949	0.250	44.70
	134800	-15989.073	-767.822	0.966	0.253	44.76
	135000	-16028.316	-774.536	0.929	0.250	44.83
	135200	-16084.999	-780.334	0.931	0.246	44.90
	135400	-16124.242	-786.743	0.920	0.237	44.96
	135600	-16176.565	-791.016	0.915	0.232	45.03
	135800	-16215.807	-794.983	0.944	0.232	45.10
	136000	-16259.410	-799.255	0.934	0.234	45.16
	136200	-16346.615	-804.749	0.919	0.230	45.23
	136400	-16525.385	-811.768	0.923	0.226	45.30
	136600	-16660.553	-818.787	0.936	0.225	45.36
	136800	-16926.529	-826.721	0.912	0.222	45.43
	137000	-17227.387	-837.708	0.915	0.220	45.50
	137200	-17484.643	-849.915	0.918	0.217	45.56
	137400	-17689.575	-861.816	0.909	0.215	45.63
	137600	-17903.228	-872.803	0.908	0.210	45.70
	137800	-18051.476	-882.874	0.886	0.207	45.76
	138000	-18147.402	-890.808	0.883	0.202	45.83
	138200	-18278.210	-897.827	0.887	0.199	45.90
	138400	-18395.937	-904.846	0.885	0.195	45.96
	138600	-18513.664	-911.865	0.882	0.192	46.03
	138800	-18600.869	-917.664	0.879	0.189	46.10
	139000	-18666.273	-924.072	0.878	0.187	46.16
	139200	-18766.559	-928.650	0.872	0.184	46.23
	139400	-18845.044	-934.448	0.885	0.182	46.30
	139600	-18919.168	-938.721	0.870	0.182	46.36
	139800	-19023.814	-943.909	0.874	0.182	46.43
	140000	-19080.498	-948.486	0.878	0.182	46.50
	140200	-19132.821	-953.064	0.881	0.181	46.56
	140400	-19193.865	-957.947	0.864	0.177	46.63
	140600	-19298.511	-962.219	0.858	0.174	46.70
	140800	-19411.878	-968.018	0.867	0.171	46.76
	141000	-19499.083	-972.900	0.871	0.171	46.83
	141200	-19581.928	-979.309	0.800	0.159	46.90
	141400	-19656.052	-984.192	0.811	0.150	46.96
	141600	-19756.338	-989.685	0.823	0.145	47.03
	141800	-19904.587	-995.178	0.817	0.145	47.10
	142000	-20022.314	-1000.977	0.805	0.140	47.16
	142200	-20148.762	-1007.690	0.835	0.143	47.23
	142400	-20262.128	-1014.099	0.825	0.145	47.30
	142600	-20388.576	-1021.118	0.854	0.144	47.36
	142800	-20480.141	-1026.611	0.845	0.145	47.43
	143000	-20536.825	-1032.104	0.830	0.144	47.50
	143200	-20641.471	-1038.208	0.827	0.143	47.56
	143400	-20719.956	-1043.091	0.836	0.141	47.63
	143600	-20903.086	-1049.805	0.817	0.137	47.70
	143800	-21108.019	-1057.434	0.819	0.134	47.76
	144000	-21273.709	-1065.674	0.824	0.132	47.83
	144200	-21435.038	-1075.134	0.816	0.129	47.90
	144400	-21565.846	-1082.153	0.819	0.129	47.96
	144600	-21775.138	-1089.783	0.817	0.129	48.03
	144800	-22049.835	-1097.717	0.827	0.131	48.10
	145000	-22267.848	-1107.483	0.822	0.133	48.16
	145200	-22490.221	-1117.249	0.815	0.131	48.23
	145400	-22651.551	-1126.099	0.803	0.128	48.30
	145600	-22821.601	-1135.254	0.750	0.123	48.36
	145800	-22965.489	-1141.357	0.916	0.128	48.43
	146000	-23087.577	-1146.851	0.910	0.151	48.50
	146200	-23244.546	-1154.175	0.918	0.162	48.56
	146400	-23336.112	-1160.889	0.911	0.167	48.63
	146600	-23475.640	-1165.771	0.901	0.168	48.70
	146800	-23562.845	-1170.349	0.897	0.168	48.76
	147000	-23654.411	-1173.096	0.902	0.169	48.83
	147200	-23763.417	-1176.758	0.902	0.169	48.90
	147400	-23833.181	-1179.504	0.914	0.169	48.96
	147600	-23920.386	-1184.082	0.881	0.169	49.03
	147800	-24033.753	-1187.439	0.883	0.166	49.10
	148000	-24046.834	-1188.660	0.891	0.167	49.16
	148200	-24116.598	-1192.017	0.844	0.163	49.23
	148400	-24199.443	-1194.763	0.879	0.163	49.30
	148600	-24225.605	-1196.289	0.885	0.164	49.36
	148800	-24243.046	-1198.730	0.898	0.164	49.43
	149000	-24304.089	-1199.341	0.883	0.168	49.50
	149200	-24347.692	-1200.562	0.883	0.168	49.56
	149400	-24356.412	-1201.477	0.869	0.165	49.63
	149600	-24400.015	-1202.393	0.865	0.164	49.70
	149800	-24395.655	-1201.782	0.853	0.164	49.76
	150000	-24404.375	-1202.087	0.919	0.169	49.83
	150200	-24391.294	-1200.867	0.879	0.176	49.90
	150400	-24391.294	-1199.646	0.874	0.175	49.96
	150600	-24378.214	-1197.510	0.865	0.175	50.03
	150800	-24352.052	-1193.542	0.881	0.180	50.10
	151000	-24334.611	-1190.186	0.875	0.185	50.16
	151200	-24400.015	-1188.354	0.867	0.184	50.23
	151400	-24413.096	-1185.303	0.858	0.181	50.30
	151600	-24434.897	-1183.167	0.865	0.182	50.36
	151800	-24408.736	-1179.810	0.877	0.187	50.43
	152000	-24391.294	-1175.842	0.880	0.191	50.50
	152200	-24365.133	-1170.959	0.912	0.200	50.56
	152400	-24325.891	-1166.687	0.903	0.206	50.63
	152600	-24308.450	-1160.889	0.884	0.215	50.70
	152800	-24238.685	-1155.396	0.929	0.218	50.76
	153000	-24173.281	-1150.208	0.938	0.227	50.83
	153200	-24134.039	-1143.799	0.942	0.235	50.90
	153400	-24068.635	-1137.390	0.909	0.237	50.96
	153600	-24038.113	-1130.371	0.920	0.238	51.03
	153800	-23955.268	-1123.657	0.910	0.240	51.10
	154000	-23872.424	-1117.249	0.942	0.245	51.16
	154200	-23841.902	-1111.145	0.939	0.256	51.23
	154400	-23798.299	-1105.347	0.908	0.254	51.30
	154600	-23876.784	-1099.548	0.950	0.260	51.36
	154800	-23885.504	-1096.802	0.968	0.266	51.43
	155000	-23876.784	-1090.088	0.968	0.276	51.50
	155200	-23885.504	-1084.900	0.944	0.281	51.56
	155400	-23841.902	-1078.491	0.972	0.285	51.63
	155600	-23837.541	-1071.167	0.948	0.290	51.70
	155800	-23763.417	-1062.622	0.955	0.296	51.76
	156000	-23693.653	-1054.077	0.962	0.302	51.83
	156200	-23641.330	-1046.143	0.974	0.307	51.90
	156400	-23597.727	-1037.292	0.975	0.312	51.96
	156600	-23562.845	-1029.053	0.941	0.309	52.03
	156800	-23484.360	-1021.423	0.891	0.307	52.10
	157000	-23397.155	-1012.573	0.926	0.297	52.16
	157200	-23296.869	-1004.028	0.966	0.305	52.23
	157400	-23227.105	-995.483	0.922	0.305	52.30
	157600	-23161.701	-987.244	0.956	0.309	52.36
	157800	-23065.775	-979.919	0.927	0.317	52.43
	158000	-22978.570	-972.900	0.983	0.323	52.50
	158200	-22908.806	-965.576	0.981	0.332	52.56
	158400	-22812.880	-957.642	0.975	0.340	52.63
	158600	-22738.756	-949.097	0.984	0.344	52.70
	158800	-22642.830	-941.772	1.039	0.361	52.76
	159000	-22551.265	-935.059	1.046	0.373	52.83
	159200	-22472.780	-928.345	1.049	0.381	52.90
	159400	-22403.016	-920.715	1.057	0.388	52.96
	159600	-22328.892	-912.476	1.051	0.396	53.03
	159800	-22224.245	-904.236	1.072	0.404	53.10
	160000	-22128.320	-896.606	1.059	0.408	53.16
	160200	-22036.754	-888.367	1.054	0.410	53.23
	160400	-21958.269	-881.348	1.034	0.409	53.30
	160600	-21901.586	-873.718	1.062	0.409	53.36
	160800	-21810.021	-867.310	1.089	0.417	53.43
	161000	-21727.176	-860.596	1.081	0.422	53.50
	161200	-21648.691	-854.492	1.066	0.424	53.56
	161400	-21552.765	-846.863	1.079	0.427	53.63
	161600	-21500.442	-839.233	1.091	0.434	53.70
	161800	-21395.796	-833.130	1.086	0.434	53.76
	162000	-21352.193	-826.721	1.111	0.436	53.83
	162200	-21308.591	-821.533	1.085	0.436	53.90
	162400	-21269.348	-816.345	1.078	0.437	53.96
	162600	-21234.466	-810.242	1.118	0.440	54.03
	162800	-21142.901	-805.359	1.125	0.454	54.10
	163000	-21077.497	-800.476	1.099	0.460	54.16
	163200	-21012.093	-795.288	1.102	0.453	54.23
	163400	-20946.689	-789.795	1.119	0.457	54.30
	163600	-20907.447	-783.997	1.125	0.462	54.36
	163800	-20811.521	-779.419	1.134	0.469	54.43
	164000	-20746.117	-774.841	1.111	0.464	54.50
	164200	-20671.993	-769.348	1.098	0.465	54.56
	164400	-20597.868	-764.160	1.125	0.467	54.63
	164600	-20541.185	-758.972	1.125	0.469	54.70
	164800	-20419.098	-752.869	1.130	0.471	54.76
	165000	-20340.613	-747.681	1.131	0.473	54.83
	165200	-20275.209	-742.798	1.125	0.474	54.90
	165400	-20209.805	-737.915	1.144	0.477	54.96
	165600	-20161.842	-733.643	1.154	0.483	55.03
	165800	-20061.556	-728.760	1.141	0.478	55.10
	166000	-19983.072	-724.487	1.142	0.477	55.16
	166200	-19895.866	-722.351	1.151	0.478	55.23
	166400	-19821.742	-717.773	1.112	0.471	55.30
	166600	-19738.897	-714.111	1.103	0.468	55.36
	166800	-19634.251	-709.229	1.136	0.472	55.43
	167000	-19551.406	-706.482	1.167	0.475	55.50
	167200	-19464.201	-704.346	1.147	0.475	55.56
	167400	-19429.319	-700.684	1.162	0.482	55.63
	167600	-19320.312	-697.937	1.155	0.481	55.70
	167800	-19211.306	-693.665	1.178	0.483	55.76
	168000	-19132.821	-692.139	1.151	0.482	55.83
	168200	-19045.616	-689.392	1.161	0.479	55.90
	168400	-18967.131	-686.035	1.139	0.476	55.96
	168600	-18893.007	-683.289	1.156	0.477	56.03
	168800	-18762.199	-680.542	1.165	0.481	56.10
	169000	-18674.994	-677.185	1.163	0.478	56.16
	169200	-18583.428	-672.302	1.212	0.486	56.23
	169400	-18518.024	-671.692	1.203	0.493	56.30
	169600	-18435.179	-668.945	1.176	0.495	56.36
	169800	-18343.614	-666.504	1.221	0.493	56.43
	170000	-18256.409	-664.673	1.171	0.490	56.50
	170200	-18160.483	-664.673	1.150	0.475	56.56
	170400	-18099.439	-663.147	1.161	0.471	56.63
	170600	-17994.793	-662.842	1.160	0.465	56.70
	170800	-17881.426	-662.842	1.141	0.460	56.76
	171000	-17794.221	-664.062	1.149	0.456	56.83
	171200	-17698.295	-663.757	1.172	0.453	56.90
	171400	-17628.531	-664.673	1.163	0.450	56.96
	171600	-17541.326	-664.062	1.186	0.453	57.03
	171800	-17436.680	-664.673	1.200	0.459	57.10
	172000	-17332.034	-664.673	1.137	0.451	57.16
	172200	-17244.828	-665.894	1.116	0.440	57.23
	172400	-17179.424	-666.809	1.123	0.428	57.30
	172600	-17087.859	-668.945	1.122	0.423	57.36
	172800	-16978.852	-671.387	1.123	0.418	57.43
	173000	-16896.008	-674.133	1.110	0.417	57.50
	173200	-16795.722	-675.659	1.152	0.413	57.56
	173400	-16734.678	-676.880	1.160	0.418	57.63
	173600	-16643.112	-677.185	1.105	0.420	57.70
	173800	-16516.665	-679.321	1.098	0.408	57.76
	174000	-16429.460	-679.016	1.154	0.405	57.83
	174200	-16355.335	-678.711	1.159	0.410	57.90
	174400	-16281.211	-679.626	1.144	0.406	57.96
	174600	-16202.726	-681.152	1.101	0.402	58.03
	174800	-16084.999	-682.373	1.065	0.395	58.10
	175000	-15993.434	-682.983	1.133	0.384	58.16
	175200	-15919.309	-684.204	1.116	0.385	58.23
	175400	-15871.346	-685.730	1.151	0.385	58.30
	175600	-15779.781	-686.951	1.125	0.383	58.36
	175800	-15670.774	-688.477	1.110	0.379	58.43
	176000	-15587.930	-690.308	1.121	0.373	58.50
	176200	-15500.724	-691.528	1.145	0.374	58.56
	176400	-15444.041	-691.833	1.126	0.370	58.63
	176600	-15361.196	-691.833	1.056	0.363	58.70
	176800	-15243.469	-692.749	1.093	0.359	58.76
	177000	-15164.984	-693.359	1.068	0.345	58.83
	177200	-15095.220	-693.970	1.106	0.348	58.90
	177400	-15029.816	-695.496	1.111	0.349	58.96
	177600	-14955.692	-696.411	1.111	0.352	59.03
	177800	-14851.046	-697.021	1.107	0.345	59.10
	178000	-14763.840	-698.242	1.081	0.343	59.16
	178200	-14685.356	-699.463	1.062	0.330	59.23
	178400	-14646.113	-700.989	1.100	0.326	59.30
	178600	-14571.989	-702.820	1.109	0.328	59.36
	178800	-14462.982	-704.041	1.100	0.326	59.43
	179000	-14384.498	-705.872	1.045	0.316	59.50
	179200	-14310.373	-706.787	1.031	0.302	59.56
	179400	-14253.690	-706.787	1.047	0.298	59.63
	179600	-14175.205	-706.787	1.030	0.293	59.70
	179800	-14074.919	-708.008	1.023	0.292	59.76
	180000	-13992.074	-707.092	1.028	0.288	59.83
	180200	-13913.590	-707.397	1.017	0.286	59.90
	180400	-13865.627	-706.787	1.043	0.283	59.96
	180600	-13782.782	-707.397	1.017	0.284	60.03
	180800	-13686.856	-705.872	0.993	0.274	60.10
	181000	-13604.011	-706.482	1.009	0.273	60.16
	181200	-13525.527	-706.482	0.956	0.262	60.23
	181400	-13490.644	-706.787	1.038	0.264	60.30
	181600	-13412.160	-708.008	1.013	0.266	60.36
	181800	-13320.594	-708.618	1.044	0.267	60.43
	182000	-13255.190	-708.923	1.100	0.282	60.50
	182200	-13194.147	-709.229	1.106	0.288	60.56
	182400	-13146.184	-710.144	1.111	0.293	60.63
	182600	-13089.501	-710.754	1.089	0.291	60.70
	182800	-12993.575	-711.365	1.095	0.288	60.76
	183000	-12915.090	-711.670	1.104	0.290	60.83
	183200	-12854.047	-711.670	1.104	0.290	60.90
	183400	-12801.723	-712.585	1.096	0.289	60.96
	183600	-12731.959	-712.891	1.094	0.285	61.03
	183800	-12640.394	-714.417	1.091	0.283	61.10
	184000	-12574.990	-715.332	1.096	0.279	61.16
	184200	-12505.226	-716.553	1.100	0.278	61.23
	184400	-12465.983	-716.858	1.094	0.276	61.30
	184600	-12396.219	-716.858	1.093	0.275	61.36
	184800	-12295.933	-717.468	1.085	0.271	61.43
	185000	-12239.250	-717.468	1.083	0.267	61.50
	185200	-12178.206	-718.994	1.084	0.264	61.56
	185400	-12147.684	-719.299	1.071	0.261	61.63
	185600	-12073.560	-720.215	1.061	0.255	61.70
	185800	-11999.436	-721.130	1.069	0.252	61.76
	186000	-11938.392	-721.741	1.053	0.248	61.83
	186200	-11872.988	-722.656	1.047	0.243	61.90
	186400	-11838.106	-722.351	1.051	0.239	61.96
	186600	-11772.702	-723.267	1.034	0.236	62.03
	186800	-11694.217	-723.572	1.036	0.235	62.10
	187000	-11633.174	-723.572	1.048	0.233	62.16
	187200	-11589.571	-723.572	1.029	0.232	62.23
	187400	-11550.329	-722.351	1.010	0.227	62.30
	187600	-11493.645	-722.351	1.015	0.223	62.36
	187800	-11415.161	-722.046	1.034	0.226	62.43
	188000	-11354.117	-722.046	1.036	0.227	62.50
	188200	-11310.514	-722.046	1.028	0.229	62.56
	188400	-11253.831	-720.825	1.030	0.224	62.63
	188600	-11205.868	-720.825	1.025	0.226	62.70
	188800	-11118.663	-720.215	1.018	0.222	62.76
	189000	-11075.060	-719.910	1.024	0.219	62.83
	189200	-11022.737	-718.994	1.022	0.219	62.90
	189400	-10979.135	-719.299	1.022	0.218	62.96
	189600	-10918.091	-716.553	1.025	0.219	63.03
	189800	-10843.967	-715.332	1.024	0.220	63.10
	190000	-10761.122	-714.722	1.023	0.219	63.16
	190200	-10752.401	-712.891	1.010	0.219	63.23
	190400	-10704.438	-710.144	1.011	0.218	63.30
	190600	-10656.475	-708.618	1.007	0.219	63.36
	190800	-10582.351	-706.787	1.010	0.219	63.43
	191000	-10525.668	-705.566	1.006	0.217	63.50
	191200	-10516.947	-704.346	1.007	0.217	63.56
	191400	-10460.264	-701.904	0.996	0.217	63.63
	191600	-10394.860	-700.989	0.998	0.215	63.70
	191800	-10333.816	-698.547	0.995	0.215	63.76
	192000	-10277.133	-697.632	0.989	0.214	63.83
	192200	-10264.052	-695.190	0.994	0.215	63.90
	192400	-10203.008	-692.749	0.990	0.217	63.96
	192600	-10141.965	-690.613	0.993	0.218	64.03
	192800	-10089.642	-687.866	0.992	0.217	64.10
	193000	-10046.039	-686.340	0.992	0.218	64.16
	193200	-9984.995	-684.204	0.988	0.218	64.23
	193400	-9937.033	-681.458	0.986	0.219	64.30
	193600	-9906.511	-680.542	0.987	0.220	64.36
	193800	-9871.629	-677.795	0.986	0.222	64.43
	194000	-9806.225	-675.049	0.980	0.221	64.50
	194200	-9780.063	-672.607	0.977	0.221	64.56
	194400	-9749.541	-669.250	0.977	0.221	64.63
	194600	-9679.777	-668.030	0.974	0.223	64.69
	194800	-9627.454	-665.283	0.979	0.223	64.76
	195000	-9596.932	-661.926	0.987	0.225	64.83
	195200	-9557.690	-658.875	0.981	0.226	64.90
	195400	-9535.889	-654.602	0.974	0.228	64.96
	195600	-9466.124	-651.245	0.981	0.232	65.03
	195800	-9431.242	-647.278	0.975	0.233	65.10
	196000	-9392.000	-643.921	0.983	0.236	65.16
	196200	-9339.677	-637.207	0.988	0.242	65.23
	196400	-9326.596	-630.798	0.989	0.246	65.30
	196600	-9256.832	-625.000	0.991	0.251	65.36
	196800	-9226.310	-619.812	0.988	0.253	65.43
	197000	-9291.714	-615.234	0.983	0.255	65.50
	197200	-9361.478	-614.319	0.982	0.258	65.56
	197400	-9418.162	-613.098	0.985	0.260	65.63
	197600	-9418.162	-610.962	0.969	0.264	65.69
	197800	-9448.683	-607.605	1.002	0.267	65.76
	198000	-9501.007	-604.248	1.007	0.275	65.83
	198200	-9592.572	-602.417	1.017	0.283	65.90
	198400	-9688.498	-599.976	1.012	0.287	65.96
	198600	-9727.740	-599.060	1.004	0.288	66.03
	198800	-9780.063	-598.145	1.018	0.291	66.10
	199000	-9832.386	-595.703	1.020	0.296	66.16
	199200	-9875.989	-594.482	1.013	0.301	66.23
	199400	-9923.952	-591.125	1.021	0.305	66.30
	199600	-9932.672	-587.769	1.025	0.310	66.36
	199800	-9950.113	-585.632	1.025	0.313	66.43
	200000	-9976.275	-582.886	1.028	0.317	66.50
	200200	-10076.561	-580.444	1.032	0.321	66.56
	200400	-10146.325	-577.393	1.035	0.326	66.63
	200600	-10168.126	-574.341	1.040	0.333	66.69
	200800	-10203.008	-570.984	1.037	0.336	66.76
	201000	-10237.891	-567.322	1.046	0.342	66.83
	201200	-10303.294	-562.439	1.045	0.346	66.90
	201400	-10338.176	-558.167	1.054	0.352	66.96
	201600	-10325.096	-553.894	1.052	0.356	67.03
	201800	-10355.618	-550.537	1.053	0.361	67.10
	202000	-10386.139	-547.180	1.060	0.366	67.16
	202200	-10503.866	-543.518	1.065	0.371	67.23
	202400	-10625.954	-541.382	1.067	0.375	67.30
	202600	-10682.637	-540.466	1.074	0.381	67.36
	202800	-10778.563	-538.635	1.073	0.384	67.43
	203000	-10857.047	-538.025	1.080	0.388	67.50
	203200	-10944.253	-535.583	1.084	0.392	67.56
	203400	-11005.296	-534.058	1.082	0.398	67.63
	203600	-11035.818	-532.227	1.088	0.400	67.69
	203800	-11083.781	-530.090	1.083	0.399	67.76
	204000	-11136.104	-528.259	1.060	0.401	67.83
	204200	-11197.148	-525.513	1.063	0.399	67.90
	204400	-11223.309	-523.376	1.089	0.402	67.96
	204600	-11240.750	-520.935	1.093	0.412	68.03
	204800	-11266.912	-518.799	1.095	0.419	68.10
	205000	-11293.073	-516.357	1.075	0.415	68.16
	205200	-11341.036	-513.916	1.081	0.414	68.23
	205400	-11362.838	-510.864	1.081	0.415	68.30
	205600	-11362.838	-508.423	1.086	0.418	68.36
	205800	-11384.639	-504.456	1.095	0.422	68.43
	206000	-11406.440	-501.404	1.092	0.425	68.50
	206200	-11445.683	-497.742	1.097	0.428	68.56
	206400	-11458.763	-494.385	1.097	0.432	68.63
	206600	-11458.763	-490.723	1.103	0.436	68.69
	206800	-11471.844	-487.061	1.104	0.440	68.76
	207000	-11484.925	-484.314	1.110	0.443	68.83
	207200	-11519.807	-480.652	1.119	0.447	68.90
	207400	-11524.167	-477.295	1.148	0.453	68.96
	207600	-11511.086	-473.633	1.141	0.464	69.03
	207800	-11511.086	-470.276	1.157	0.471	69.10
	208000	-11524.167	-465.088	1.144	0.477	69.16
	208200	-11559.049	-461.731	1.153	0.479	69.23
	208400	-11567.770	-457.153	1.154	0.482	69.30
	208600	-11545.969	-454.712	1.152	0.484	69.36
	208800	-11537.248	-451.050	1.160	0.484	69.43
	209000	-11545.969	-448.303	1.183	0.495	69.50
	209200	-11580.851	-444.641	1.178	0.503	69.56
	209400	-11580.851	-440.979	1.171	0.503	69.63
	209600	-11559.049	-437.622	1.176	0.504	69.69
	209800	-11563.410	-434.570	1.173	0.503	69.76
	210000	-11563.410	-431.213	1.178	0.503	69.83
	210200	-11589.571	-427.551	1.192	0.508	69.90
	210400	-11598.292	-424.500	1.201	0.515	69.96
	210600	-11585.211	-421.143	1.205	0.520	70.03
	210800	-11580.851	-418.396	1.207	0.524	70.10
	211000	-11585.211	-416.870	1.210	0.525	70.16
	211200	-11589.571	-414.734	1.206	0.524	70.23
	211400	-11580.851	-413.513	1.201	0.520	70.30
	211600	-11567.770	-411.987	1.213	0.522	70.36
	211800	-11580.851	-410.767	1.216	0.523	70.43
	212000	-11676.776	-411.377	1.218	0.523	70.50
	212200	-11702.938	-413.208	1.220	0.525	70.56
	212400	-11790.143	-414.429	1.220	0.527	70.63
	212600	-11803.224	-414.429	1.205	0.523	70.69
	212800	-11829.385	-415.039	1.196	0.519	70.76
	213000	-11872.988	-416.565	1.200	0.520	70.83
	213200	-11907.870	-417.786	1.230	0.526	70.90
	213400	-11938.392	-418.701	1.234	0.529	70.96
	213600	-11977.634	-420.227	1.238	0.533	71.03
	213800	-12051.759	-422.974	1.235	0.535	71.10
	214000	-12095.361	-424.805	1.245	0.536	71.16
	214200	-12156.405	-427.551	1.231	0.532	71.23
	214400	-12208.728	-430.298	1.222	0.525	71.30
	214600	-12226.169	-432.739	1.240	0.525	71.36
	214800	-12256.691	-434.265	1.241	0.525	71.43
	215000	-12295.933	-436.401	1.259	0.526	71.50
	215200	-12348.256	-438.843	1.255	0.528	71.56
	215400	-12378.778	-441.589	1.241	0.525	71.63
	215600	-12391.859	-444.031	1.248	0.522	71.69
	215800	-12422.381	-446.167	1.241	0.515	71.76
	216000	-12465.983	-451.355	1.240	0.513	71.83
	216200	-12487.785	-454.102	1.230	0.511	71.90
	216400	-12500.865	-456.848	1.237	0.509	71.96
	216600	-12479.064	-461.121	1.217	0.505	72.03
	216800	-12518.306	-465.698	1.223	0.500	72.10
	217000	-12640.394	-471.191	1.244	0.496	72.16
	217200	-12766.841	-478.210	1.241	0.497	72.23
	217400	-12854.047	-484.009	1.235	0.496	72.30
	217600	-12919.450	-489.807	1.227	0.494	72.36
	217800	-12971.774	-496.216	1.215	0.486	72.43
	218000	-13019.736	-502.014	1.210	0.478	72.50
	218200	-13080.780	-506.897	1.215	0.473	72.56
	218400	-13128.743	-511.475	1.210	0.473	72.63
	218600	-13167.985	-516.357	1.182	0.470	72.69
	218800	-13224.669	-521.545	1.198	0.466	72.76
	219000	-13272.631	-525.818	1.202	0.465	72.83
	219200	-13338.035	-531.311	1.220	0.462	72.90
	219400	-13368.557	-537.109	1.205	0.461	72.96
	219600	-13372.917	-541.687	1.203	0.454	73.03
	219800	-13403.439	-547.180	1.181	0.450	73.10
	220000	-13412.160	-551.453	1.190	0.447	73.16
	220200	-13460.123	-554.810	1.188	0.444	73.23
	220400	-13464.483	-558.777	1.190	0.441	73.30
	220600	-13473.203	-561.523	1.190	0.439	73.36
	220800	-13490.644	-565.491	1.187	0.436	73.43
	221000	-13617.092	-570.374	1.188	0.433	73.50
	221200	-13756.620	-577.698	1.195	0.432	73.56
	221400	-13865.627	-585.632	1.190	0.429	73.63
	221600	-13922.310	-593.872	1.187	0.425	73.69
	221800	-14005.155	-603.027	1.172	0.419	73.76
	222000	-14061.839	-611.572	1.172	0.411	73.83
	222200	-14153.404	-618.896	1.182	0.406	73.90
	222400	-14214.448	-625.916	1.156	0.403	73.96
	222600	-14244.969	-633.545	1.182	0.399	74.03
	222800	-14332.175	-641.174	1.170	0.397	74.10
	223000	-14375.777	-648.193	1.182	0.392	74.16
	223200	-14441.181	-654.907	1.165	0.388	74.23
	223400	-14467.343	-661.926	1.158	0.385	74.30
	223600	-14476.063	-664.673	1.178	0.384	74.36
	223800	-14519.666	-670.471	1.161	0.380	74.43
	224000	-14545.827	-674.438	1.118	0.370	74.50
	224200	-14602.511	-679.321	1.124	0.361	74.56
	224400	-14619.952	-686.646	1.104	0.354	74.63
	224600	-14628.672	-691.223	1.122	0.347	74.69
	224800	-14637.393	-697.021	1.115	0.342	74.76
	225000	-14650.474	-701.904	1.127	0.340	74.83
	225200	-14680.995	-706.482	1.120	0.338	74.90
	225400	-14698.436	-711.060	1.108	0.334	74.96
	225600	-14698.436	-715.637	1.107	0.332	75.03
	225800	-14715.878	-720.215	1.096	0.329	75.10
	226000	-14728.958	-724.487	1.119	0.325	75.16
	226200	-14737.679	-726.929	1.099	0.324	75.23
	226400	-14724.598	-730.591	1.093	0.320	75.30
	226600	-14711.517	-732.117	1.104	0.319	75.36
	226800	-14724.598	-735.779	1.097	0.315	75.43
	227000	-14768.201	-739.136	1.083	0.311	75.50
	227200	-14824.884	-744.019	1.070	0.306	75.56
	227400	-14855.406	-748.291	1.096	0.303	75.63
	227600	-14872.847	-753.784	1.058	0.296	75.69
	227800	-14899.008	-759.888	1.062	0.290	75.76
	228000	-14942.611	-765.381	1.053	0.285	75.83
	228200	-14981.853	-770.264	1.058	0.282	75.90
	228400	-14990.574	-775.146	1.041	0.279	75.96
	228600	-14999.294	-779.419	1.055	0.274	76.03
	228800	-15016.735	-783.997	1.042	0.270	76.10
	229000	-15025.456	-788.269	1.039	0.266	76.16
	229200	-15060.338	-792.236	1.023	0.261	76.23
	229400	-15055.978	-796.509	1.014	0.256	76.30
	229600	-15060.338	-800.476	1.028	0.252	76.36
	229800	-15069.059	-805.054	1.014	0.247	76.43
	230000	-15099.580	-808.105	0.997	0.240	76.50
	230200	-15108.301	-811.768	1.014	0.240	76.56
	230400	-15077.779	-815.430	1.031	0.242	76.63
	230600	-15086.500	-818.176	1.028	0.244	76.69
	230800	-15099.580	-822.144	1.030	0.242	76.76
	231000	-15121.382	-826.111	1.029	0.239	76.83
	231200	-15134.462	-828.857	1.020	0.239	76.90
	231400	-15112.661	-831.299	1.024	0.235	76.96
	231600	-15095.220	-835.266	1.017	0.234	77.03
	231800	-15095.220	-837.402	1.010	0.230	77.10
	232000	-15121.382	-841.064	1.006	0.226	77.16
	232200	-15212.947	-844.421	1.018	0.225	77.23
	232400	-15295.792	-848.999	1.074	0.228	77.30
	232600	-15356.836	-854.187	1.088	0.236	77.36
	232800	-15417.879	-859.680	1.078	0.237	77.43
	233000	-15505.085	-864.258	1.076	0.237	77.50
	233200	-15561.768	-868.835	1.067	0.236	77.56
	233400	-15592.290	-873.718	1.056	0.237	77.63
	233600	-15627.172	-877.380	1.058	0.235	77.69
	233800	-15657.694	-881.348	1.023	0.229	77.76
	234000	-15718.737	-883.789	1.049	0.230	77.83
	234200	-15749.259	-885.620	1.050	0.223	77.90
	234400	-15779.781	-887.756	1.055	0.226	77.96
	234600	-15801.582	-890.503	1.050	0.228	78.03
	234800	-15814.663	-892.029	1.056	0.229	78.10
	235000	-15871.346	-893.555	1.041	0.229	78.16
	235200	-15901.868	-895.386	0.991	0.225	78.23
	235400	-15919.309	-895.996	0.992	0.218	78.30
	235600	-15941.111	-896.912	1.008	0.216	78.36
	235800	-15954.191	-898.438	1.033	0.218	78.43
	236000	-15997.794	-899.048	1.013	0.220	78.50
	236200	-16002.154	-901.184	0.998	0.219	78.56
	236400	-16010.875	-900.574	1.016	0.217	78.63
	236600	-16041.397	-901.794	1.010	0.219	78.69
	236800	-16054.477	-902.100	0.993	0.220	78.76
	237000	-16076.279	-902.100	1.007	0.224	78.83
	237200	-16102.440	-902.100	1.003	0.223	78.90
	237400	-16111.161	-901.794	1.012	0.226	78.96
	237600	-16132.962	-902.710	1.013	0.227	79.03
	237800	-16141.683	-903.015	1.014	0.227	79.10
	238000	-16185.285	-904.236	1.009	0.228	79.16
	238200	-16202.726	-903.015	1.007	0.229	79.23
	238400	-16202.726	-903.320	1.005	0.231	79.30
	238600	-16215.807	-902.100	1.008	0.233	79.36
	238800	-16215.807	-900.879	1.014	0.235	79.43
	239000	-16250.689	-899.048	1.009	0.236	79.50
	239200	-16320.453	-897.522	1.010	0.240	79.56
	239400	-16342.255	-896.912	1.010	0.242	79.63
	239600	-16372.776	-895.996	1.012	0.244	79.69
	239800	-16394.578	-894.165	1.010	0.248	79.76
	240000	-16438.180	-891.724	1.009	0.252	79.83
	240200	-16473.062	-889.282	0.994	0.252	79.90
	240400	-16473.062	-886.230	1.013	0.255	79.96
	240600	-16464.342	-883.179	1.017	0.260	80.03
	240800	-16473.062	-881.042	1.016	0.264	80.10
	241000	-16542.826	-877.991	1.015	0.267	80.16
	241200	-16529.746	-875.244	1.024	0.272	80.23
	241400	-16507.944	-872.803	1.010	0.277	80.30
	241600	-16503.584	-870.361	1.009	0.278	80.36
	241800	-16512.305	-866.394	1.010	0.279	80.43
	242000	-16547.187	-862.732	1.006	0.283	80.50
	242200	-16551.547	-857.544	1.015	0.287	80.56
	242400	-16507.944	-852.051	1.018	0.293	80.63
	242600	-16512.305	-846.558	1.017	0.297	80.69
	242800	-16516.665	-842.285	1.025	0.302	80.76
	243000	-16534.106	-837.097	1.029	0.307	80.83
	243200	-16516.665	-834.656	1.027	0.311	80.90
	243400	-16486.143	-829.773	1.035	0.317	80.96
	243600	-16481.783	-823.975	1.029	0.321	81.03
	243800	-16481.783	-816.650	1.035	0.327	81.10
	244000	-16494.864	-809.326	1.051	0.336	81.16
	244200	-16473.062	-800.781	1.055	0.345	81.23
	244400	-16446.901	-793.152	1.045	0.352	81.30
	244600	-16455.621	-786.743	1.061	0.358	81.36
	244800	-16442.540	-779.419	1.057	0.367	81.43
	245000	-16438.180	-772.400	1.029	0.365	81.50
	245200	-16429.460	-763.550	1.073	0.375	81.56
	245400	-16412.019	-757.751	1.077	0.385	81.63
	245600	-16377.137	-749.512	1.084	0.394	81.69
	245800	-16372.776	-741.577	1.090	0.403	81.76
	246000	-16372.776	-733.032	1.091	0.410	81.83
	246200	-16394.578	-726.318	1.101	0.418	81.90
	246400	-16359.696	-721.130	1.095	0.421	81.96
	246600	-16342.255	-715.637	1.101	0.424	82.03
	246800	-16337.894	-710.754	1.104	0.429	82.10
	247000	-16372.776	-706.787	1.110	0.433	82.16
	247200	-16372.776	-703.125	1.111	0.436	82.23
	247400	-16324.813	-699.463	1.113	0.440	82.30
	247600	-16320.453	-694.885	1.115	0.442	82.36
	247800	-16316.093	-689.697	1.114	0.443	82.43
	248000	-16337.894	-684.814	1.121	0.447	82.50
	248200	-16311.733	-678.406	1.118	0.450	82.56
	248400	-16289.931	-672.607	1.129	0.456	82.63
	248600	-16268.130	-666.504	1.129	0.459	82.70
	248800	-16263.770	-661.316	1.147	0.469	82.76
	249000	-16272.490	-655.518	1.152	0.476	82.83
	249200	-16259.410	-649.719	1.158	0.483	82.90
	249400	-16250.689	-645.142	1.164	0.488	82.96
	249600	-16215.807	-640.869	1.167	0.493	83.03
	249800	-16224.527	-635.986	1.170	0.498	83.10
	250000	-16259.410	-631.714	1.176	0.502	83.16
	250200	-16268.130	-627.136	1.178	0.507	83.23
	250400	-16224.527	-623.474	1.182	0.509	83.30
	250600	-16220.167	-619.202	1.187	0.513	83.36
	250800	-16241.969	-616.150	1.181	0.515	83.43
	251000	-16255.049	-612.488	1.193	0.518	83.50
	251200	-16233.248	-608.826	1.187	0.522	83.56
	251400	-16194.006	-604.553	1.202	0.524	83.63
	251600	-16198.366	-601.501	1.206	0.528	83.70
	251800	-16198.366	-597.534	1.202	0.530	83.76
	252000	-16207.086	-594.482	1.214	0.534	83.83
	252200	-16198.366	-590.515	1.216	0.537	83.90
	252400	-16176.565	-587.769	1.221	0.538	83.96
	252600	-16163.484	-584.717	1.226	0.540	84.03
	252800	-16132.962	-583.496	1.226	0.540	84.10
	253000	-16146.043	-581.055	1.227	0.539	84.16
	253200	-16146.043	-579.224	1.236	0.543	84.23
	253400	-16076.279	-577.393	1.237	0.546	84.30
	253600	-16058.838	-575.562	1.241	0.547	84.36
	253800	-16063.198	-574.951	1.235	0.549	84.43
	254000	-16067.558	-574.036	1.246	0.548	84.50
	254200	-16028.316	-573.425	1.245	0.550	84.56
	254400	-15989.073	-572.205	1.243	0.549	84.63
	254600	-15975.993	-571.899	1.249	0.550	84.70
	254800	-15936.750	-570.374	1.244	0.549	84.76
	255000	-15932.390	-570.068	1.251	0.546	84.83
	255200	-15923.670	-570.068	1.238	0.541	84.90
	255400	-15893.148	-570.068	1.245	0.538	84.96
	255600	-15832.104	-569.153	1.242	0.538	85.03
	255800	-15862.626	-569.458	1.236	0.533	85.10
	256000	-15823.384	-569.458	1.254	0.536	85.16
	256200	-15801.582	-568.542	1.234	0.536	85.23
	256400	-15797.222	-567.627	1.259	0.536	85.30
	256600	-15766.700	-567.627	1.257	0.536	85.36
	256800	-15727.458	-567.627	1.254	0.535	85.43
	257000	-15714.377	-568.542	1.245	0.534	85.50
	257200	-15696.936	-569.763	1.259	0.530	85.56
	257400	-15622.812	-570.068	1.272	0.533	85.63
	257600	-15614.091	-571.289	1.253	0.530	85.70
	257800	-15596.650	-573.730	1.263	0.526	85.76
	258000	-15566.128	-574.036	1.227	0.519	85.83
	258200	-15539.967	-573.730	1.221	0.512	85.90
	258400	-15500.724	-576.477	1.255	0.510	85.96
	258600	-15452.761	-579.529	1.256	0.509	86.03
	258800	-15448.401	-580.750	1.246	0.510	86.10
	259000	-15435.320	-581.055	1.268	0.510	86.16
	259200	-15465.842	-584.412	1.262	0.511	86.23
	259400	-15587.930	-588.989	1.256	0.509	86.30
	259600	-15731.818	-594.482	1.256	0.508	86.36
	259800	-15823.384	-600.586	1.250	0.506	86.43
	260000	-15919.309	-607.300	1.256	0.501	86.50
	260200	-15980.353	-612.793	1.246	0.500	86.56
	260400	-16023.956	-617.676	1.266	0.497	86.63
	260600	-16054.477	-622.864	1.254	0.493	86.70
	260800	-16128.602	-628.662	1.247	0.490	86.76
	261000	-16167.844	-634.766	1.248	0.486	86.83
	261200	-16163.484	-639.954	1.240	0.482	86.90
	261400	-16185.285	-645.142	1.245	0.478	86.96
	261600	-16215.807	-650.635	1.235	0.473	87.03
	261800	-16233.248	-655.212	1.218	0.468	87.10
	262000	-16250.689	-658.569	1.237	0.465	87.16
	262200	-16241.969	-662.842	1.231	0.462	87.23
	262400	-16224.527	-664.368	1.232	0.460	87.30
	262600	-16298.652	-666.809	1.229	0.457	87.36
	262800	-16446.901	-672.607	1.213	0.453	87.43
	263000	-16525.385	-677.795	1.232	0.450	87.50
	263200	-16599.510	-684.204	1.229	0.450	87.56
	263400	-16638.752	-691.223	1.213	0.445	87.63
	263600	-16686.715	-696.716	1.227	0.442	87.70
	263800	-16773.920	-703.735	1.213	0.434	87.76
	264000	-16787.001	-709.839	1.200	0.431	87.83
	264200	-16813.163	-715.942	1.160	0.418	87.90
	264400	-16843.684	-722.046	1.171	0.409	87.96
	264600	-16852.405	-727.539	1.173	0.401	88.03
	264800	-16896.008	-732.727	1.165	0.398	88.10
	265000	-16935.250	-738.831	1.170	0.392	88.16
	265200	-16926.529	-744.324	1.157	0.387	88.23
	265400	-16935.250	-750.732	1.147	0.382	88.30
	265600	-16948.331	-756.226	1.155	0.379	88.36
	265800	-17035.536	-761.719	1.152	0.373	88.43
	266000	-17175.064	-769.653	1.140	0.368	88.50
	266200	-17266.630	-775.757	1.152	0.367	88.56
	266400	-17314.592	-783.691	1.140	0.362	88.63
	266600	-17393.077	-790.405	1.122	0.357	88.70
	266800	-17467.202	-798.035	1.125	0.350	88.76
	267000	-17506.444	-804.443	1.145	0.346	88.83
	267200	-17563.127	-809.937	1.154	0.349	88.90
	267400	-17580.568	-817.566	1.144	0.346	88.96
	267600	-17611.090	-822.449	1.128	0.343	89.03
	267800	-17676.494	-828.247	1.123	0.337	89.10
	268000	-17702.656	-834.045	1.121	0.333	89.16
	268200	-17728.817	-838.318	1.116	0.330	89.23
	268400	-17746.258	-842.896	1.138	0.327	89.30
	268600	-17754.979	-847.168	1.141	0.327	89.36
	268800	-17824.743	-850.525	1.139	0.325	89.43
	269000	-17829.103	-854.492	1.127	0.324	89.50
	269200	-17833.463	-858.765	1.111	0.318	89.56
	269400	-17855.265	-864.258	1.119	0.313	89.63
	269600	-17859.625	-869.751	1.111	0.307	89.70
	269800	-17907.588	-874.329	1.109	0.302	89.76
	270000	-17929.389	-879.517	1.100	0.299	89.83
	270200	-17911.948	-884.399	1.113	0.298	89.90
	270400	-17911.948	-888.672	1.089	0.292	89.96
	270600	-17938.110	-892.944	1.090	0.288	90.03
	270800	-17959.911	-895.386	1.090	0.286	90.10
	271000	-18012.234	-899.048	1.091	0.284	90.16
	271200	-17990.433	-902.710	1.096	0.282	90.23
	271400	-18007.874	-906.982	1.083	0.279	90.30
	271600	-18020.955	-910.339	1.085	0.276	90.36
	271800	-18042.756	-914.612	1.088	0.274	90.43
	272000	-18068.917	-917.358	1.115	0.274	90.50
	272200	-18042.756	-920.715	1.072	0.272	90.56
	272400	-18047.116	-924.072	1.078	0.270	90.63
	272600	-18060.197	-927.124	1.084	0.266	90.70
	272800	-18086.359	-930.786	1.074	0.265	90.76
	273000	-18204.086	-934.753	1.070	0.262	90.83
	273200	-18291.291	-940.247	1.086	0.260	90.90
	273400	-18426.459	-946.960	1.075	0.258	90.96
	273600	-18565.987	-953.369	1.067	0.255	91.03
	273800	-18679.354	-960.999	1.008	0.249	91.10
	274000	-18788.360	-967.102	1.059	0.243	91.16
	274200	-18845.044	-973.206	1.058	0.245	91.23
	274400	-18901.727	-978.699	1.049	0.245	91.30
	274600	-18975.852	-984.192	1.046	0.241	91.36
	274800	-19071.777	-989.380	1.046	0.238	91.43
	275000	-19128.461	-994.263	1.012	0.237	91.50
	275200	-19167.703	-998.535	0.983	0.226	91.56
	275400	-19233.107	-1002.808	0.979	0.215	91.63
	275600	-19407.517	-1007.996	0.981	0.211	91.70
	275800	-19564.487	-1014.099	1.007	0.211	91.76
	276000	-19699.655	-1020.508	1.001	0.211	91.83
	276200	-19782.500	-1027.832	0.980	0.207	91.90
	276400	-19860.984	-1033.630	0.975	0.202	91.96
	276600	-19961.270	-1038.818	0.999	0.203	92.03
	276800	-20061.556	-1042.175	0.992	0.206	92.10
	277000	-20153.122	-1046.448	1.001	0.207	92.16
	277200	-20188.004	-1048.584	0.988	0.209	92.23
	277400	-20257.768	-1051.941	1.009	0.209	92.30
	277600	-20310.091	-1056.824	0.991	0.211	92.36
	277800	-20427.818	-1057.739	0.992	0.211	92.43
	278000	-20423.458	-1059.875	0.970	0.208	92.50
	278200	-20475.781	-1061.707	0.977	0.211	92.56
	278400	-20541.185	-1064.453	0.974	0.209	92.63
	278600	-20597.868	-1066.589	0.972	0.209	92.70
	278800	-20632.750	-1067.810	0.961	0.208	92.76
	279000	-20711.235	-1068.115	0.946	0.203	92.83
	279200	-20719.956	-1069.641	0.950	0.203	92.90
	279400	-20780.999	-1072.083	0.941	0.199	92.96
	279600	-20833.322	-1072.998	0.934	0.196	93.03
	279800	-20881.285	-1073.914	0.945	0.197	93.10
	280000	-20959.770	-1074.219	0.946	0.200	93.16
	280200	-20929.248	-1075.439	0.942	0.200	93.23
	280400	-21007.733	-1077.271	0.942	0.198	93.30
	280600	-21020.814	-1079.407	0.955	0.205	93.36
	280800	-21068.776	-1078.796	0.945	0.206	93.43
	281000	-21129.820	-1080.322	0.914	0.203	93.50
	281200	-21134.180	-1079.712	0.927	0.199	93.56
	281400	-21225.746	-1080.933	0.925	0.199	93.63
	281600	-21212.665	-1080.017	0.925	0.197	93.70
	281800	-21291.150	-1080.933	0.926	0.198	93.76
	282000	-21321.671	-1080.017	0.945	0.204	93.83
	282200	-21330.392	-1079.102	0.985	0.214	93.90
	282400	-21378.355	-1078.796	0.948	0.214	93.96
	282600	-21400.156	-1078.796	0.928	0.215	94.03
	282800	-21513.523	-1077.271	0.937	0.214	94.10
	283000	-21578.927	-1074.829	0.970	0.223	94.16
	283200	-21644.331	-1074.219	0.956	0.229	94.23
	283400	-21692.294	-1073.303	0.959	0.236	94.30
	283600	-21766.418	-1072.083	0.958	0.236	94.36
	283800	-21823.101	-1071.777	0.958	0.237	94.43
	284000	-21871.064	-1071.777	0.953	0.239	94.50
	284200	-21905.946	-1069.946	0.985	0.245	94.56
	284400	-21919.027	-1068.115	0.970	0.248	94.63
	284600	-21966.990	-1067.505	0.987	0.252	94.70
	284800	-22010.593	-1065.369	0.971	0.254	94.76
	285000	-22102.158	-1064.148	0.970	0.256	94.83
	285200	-22141.400	-1062.622	0.937	0.251	94.90
	285400	-22189.363	-1061.707	0.921	0.252	94.96
	285600	-22280.929	-1061.096	0.957	0.254	95.03
	285800	-22355.053	-1058.655	0.961	0.258	95.10
	286000	-22411.736	-1056.824	0.978	0.269	95.16
	286200	-22420.457	-1055.908	0.968	0.274	95.23
	286400	-22481.501	-1053.162	0.984	0.277	95.30
	286600	-22529.463	-1052.856	0.981	0.283	95.36
	286800	-22599.228	-1051.025	0.994	0.287	95.43
	287000	-22634.110	-1049.194	0.983	0.291	95.50
	287200	-22664.632	-1047.974	0.977	0.291	95.56
	287400	-22690.793	-1045.837	0.994	0.295	95.63
	287600	-22756.197	-1043.396	0.997	0.303	95.70
	287800	-22795.439	-1040.344	0.995	0.307	95.76
	288000	-22843.402	-1037.903	0.977	0.307	95.83
	288200	-22865.203	-1034.851	0.980	0.306	95.90
	288400	-22926.247	-1032.410	0.996	0.310	95.96
	288600	-22974.210	-1029.053	0.995	0.315	96.03
	288800	-23000.372	-1025.391	1.016	0.324	96.10
	289000	-23074.496	-1022.644	1.016	0.330	96.16
	289200	-23074.496	-1019.592	1.018	0.337	96.23
	289400	-23152.981	-1016.235	1.019	0.340	96.30
	289600	-23196.583	-1013.184	1.039	0.345	96.36
	289800	-23279.428	-1010.132	1.045	0.355	96.43
	290000	-23314.310	-1007.996	1.044	0.359	96.50
	290200	-23370.994	-1005.859	1.042	0.362	96.56
	290400	-23506.162	-1005.554	1.080	0.373	96.63
	290600	-23632.609	-1004.028	1.071	0.383	96.70
	290800	-23724.175	-1000.977	1.059	0.387	96.76
	291000	-23837.541	-999.146	1.066	0.388	96.83
	291200	-23889.865	-997.009	1.075	0.392	96.90
	291400	-23985.790	-994.873	1.078	0.397	96.96
	291600	-24064.275	-993.042	1.073	0.401	97.03
	291800	-24164.561	-993.042	1.078	0.402	97.10
	292000	-24216.884	-993.042	1.082	0.403	97.16
	292200	-24273.567	-993.042	1.085	0.406	97.23
	292400	-24343.332	-993.347	1.090	0.410	97.30
	292600	-24413.096	-993.347	1.057	0.407	97.36
	292800	-24526.463	-994.873	1.093	0.410	97.43
	293000	-24631.109	-994.873	1.092	0.416	97.50
	293200	-24696.513	-995.483	1.097	0.421	97.56
	293400	-24783.718	-995.789	1.107	0.425	97.63
	293600	-24870.923	-996.094	1.112	0.429	97.70
	293800	-24962.489	-995.789	1.119	0.436	97.76
	294000	-25032.253	-994.263	1.121	0.441	97.83
	294200	-25093.296	-993.652	1.119	0.445	97.90
	294400	-25158.700	-993.347	1.124	0.446	97.96
	294600	-25263.346	-993.347	1.120	0.447	98.03
	294800	-25328.750	-993.347	1.108	0.445	98.10
	295000	-25402.875	-992.432	1.127	0.447	98.16
	295200	-25437.757	-993.042	1.115	0.447	98.23
	295400	-25516.242	-993.042	1.136	0.451	98.30
	295600	-25599.087	-992.432	1.126	0.454	98.36
	295800	-25681.931	-992.432	1.138	0.458	98.43
	296000	-25721.174	-992.737	1.137	0.462	98.50
	296200	-25777.857	-993.042	1.147	0.467	98.56
	296400	-25825.820	-993.347	1.144	0.470	98.63
	296600	-25921.746	-993.958	1.140	0.470	98.70
	296800	-25974.069	-994.263	1.142	0.471	98.76
	297000	-26039.473	-993.958	1.136	0.471	98.83
	297200	-26061.274	-993.652	1.144	0.473	98.90
	297400	-26135.398	-993.347	1.149	0.475	98.96
	297600	-26213.883	-993.652	1.152	0.477	99.03
	297800	-26279.287	-994.263	1.151	0.479	99.10
	298000	-26344.691	-994.873	1.157	0.481	99.16
	298200	-26375.213	-996.094	1.162	0.483	99.23
	298400	-26440.617	-996.094	1.159	0.485	99.30
	298600	-26519.101	-997.314	1.158	0.485	99.36
	298800	-26593.226	-997.620	1.154	0.484	99.43
	299000	-26645.549	-997.620	1.154	0.484	99.50
	299200	-26706.593	-999.451	1.154	0.484	99.56
	299400	-26750.195	-1000.671	1.158	0.486	99.63
	299600	-26841.761	-1001.587	1.154	0.486	99.70
	299800	-26889.723	-1003.418	1.164	0.487	99.76
	300000	-26976.929	-1004.333	1.170	0.489	99.83
	300200	-27029.252	-1005.859	1.154	0.486	99.90
	300400	-27116.457	-1007.690	1.140	0.482	99.96
	300600	-27181.861	-1009.521	1.121	0.473	100.03
	300800	-27255.985	-1010.437	1.151	0.475	100.10
	301000	-27312.669	-1011.353	1.164	0.473	100.16
	301200	-27356.271	-1012.573	1.135	0.477	100.23
	301400	-27434.756	-1014.099	1.158	0.476	100.30
	301600	-27504.520	-1015.625	1.158	0.480	100.36
	301800	-27569.924	-1016.846	1.162	0.484	100.43
	302000	-27626.607	-1017.456	1.158	0.487	100.50
	302200	-27683.291	-1018.677	1.164	0.489	100.56
	302400	-27726.893	-1020.203	1.163	0.491	100.63
	302600	-27831.540	-1021.729	1.160	0.493	100.70
	302800	-27870.782	-1022.644	1.160	0.491	100.76
	303000	-27936.186	-1024.780	1.162	0.492	100.83
	303200	-27975.428	-1026.306	1.172	0.492	100.90
	303400	-28040.832	-1028.442	1.137	0.489	100.96
	303600	-28128.037	-1029.663	1.145	0.483	101.03
	303800	-28176.000	-1029.968	1.177	0.484	101.10
	304000	-28241.404	-1032.410	1.160	0.487	101.16
	304200	-28302.448	-1034.851	1.152	0.486	101.23
	304400	-28407.094	-1037.292	1.152	0.485	101.30
	304600	-28498.659	-1040.649	1.152	0.485	101.36
	304800	-28581.504	-1042.480	1.161	0.486	101.43
	305000	-28633.827	-1044.617	1.181	0.489	101.50
	305200	-28716.672	-1046.753	1.183	0.496	101.56
	305400	-28777.716	-1049.194	1.189	0.501	101.63
	305600	-28873.642	-1051.025	1.190	0.505	101.70
	305800	-28969.568	-1052.856	1.181	0.504	101.76
	306000	-29026.251	-1054.688	1.177	0.504	101.83
	306200	-29130.897	-1057.129	1.177	0.502	101.90
	306400	-29244.264	-1060.181	1.183	0.501	101.96
	306600	-29418.674	-1065.674	1.189	0.503	102.03
	306800	-29545.122	-1067.505	1.184	0.504	102.10
	307000	-29662.849	-1073.608	1.192	0.504	102.16
	307200	-29767.495	-1077.881	1.194	0.508	102.23
	307400	-29863.421	-1082.764	1.194	0.508	102.30
	307600	-29981.148	-1085.205	1.190	0.510	102.36
	307800	-30068.353	-1087.646	1.201	0.512	102.43
	308000	-30146.838	-1090.698	1.207	0.515	102.50
	308200	-30242.763	-1093.750	1.198	0.521	102.56
	308400	-30295.087	-1095.886	1.217	0.522	102.63
	308600	-30425.894	-1098.328	1.203	0.522	102.70
	308800	-30482.578	-1099.548	1.211	0.526	102.76
	309000	-30534.901	-1102.295	1.218	0.529	102.83
	309200	-30604.665	-1104.126	1.223	0.531	102.90
	309400	-30674.429	-1106.873	1.216	0.531	102.96
	309600	-30787.796	-1108.704	1.208	0.525	103.03
	309800	-30840.119	-1112.671	1.195	0.520	103.10
	310000	-30905.523	-1115.112	1.210	0.520	103.16
	310200	-30975.287	-1116.943	1.201	0.519	103.23
	310400	-31027.610	-1118.164	1.221	0.520	103.30
	310600	-31110.455	-1122.437	1.211	0.525	103.36
	310800	-31158.418	-1123.657	1.198	0.524	103.43
	311000	-31206.381	-1125.183	1.209	0.523	103.50
	311200	-31267.425	-1128.540	1.213	0.521	103.56
	311400	-31324.108	-1130.371	1.225	0.523	103.63
	311600	-31446.195	-1134.644	1.198	0.515	103.70
	311800	-31489.798	-1138.306	1.209	0.516	103.76
	312000	-31550.841	-1138.916	1.204	0.514	103.83
	312200	-31598.804	-1140.747	1.205	0.515	103.90
	312400	-31742.693	-1145.325	1.219	0.515	103.96
	312600	-31882.221	-1148.071	1.233	0.521	104.03
	312800	-31991.228	-1150.818	1.231	0.526	104.10
	313000	-32069.712	-1155.396	1.229	0.529	104.16
	313200	-32204.880	-1159.058	1.229	0.528	104.23
	313400	-32257.204	-1163.635	1.232	0.528	104.30
	313600	-32379.291	-1166.992	1.223	0.526	104.36
	313800	-32453.415	-1170.654	1.227	0.522	104.43
	314000	-32497.018	-1174.011	1.180	0.511	104.50
	314200	-32592.944	-1176.758	1.205	0.505	104.56
	314400	-32636.546	-1180.420	1.213	0.505	104.63
	314600	-32736.832	-1181.335	1.224	0.517	104.70
	314800	-32797.876	-1183.167	1.239	0.523	104.76
	315000	-32824.037	-1184.692	1.223	0.524	104.83
	315200	-32889.441	-1188.660	1.227	0.523	104.90
	315400	-32950.485	-1190.491	1.227	0.521	104.96
	315600	-33015.889	-1192.627	1.233	0.520	105.03
	315800	-33076.932	-1194.458	1.213	0.519	105.10
	316000	-33103.094	-1196.899	1.221	0.513	105.16
	316200	-33168.498	-1199.646	1.210	0.512	105.23
	316400	-33203.380	-1202.087	1.219	0.511	105.30
	316600	-33242.622	-1203.918	1.227	0.511	105.36
	316800	-33294.945	-1206.360	1.250	0.520	105.43
	317000	-33329.828	-1208.191	1.238	0.519	105.50
	317200	-33360.349	-1210.327	1.228	0.517	105.56
	317400	-33421.393	-1212.158	1.233	0.515	105.63
	317600	-33464.996	-1213.379	1.234	0.516	105.70
	317800	-33508.598	-1215.210	1.232	0.515	105.76
	318000	-33526.039	-1216.736	1.231	0.514	105.83
	318200	-33560.921	-1216.736	1.223	0.512	105.90
	318400	-33604.524	-1220.703	1.199	0.507	105.96
	318600	-33674.288	-1222.839	1.223	0.507	106.03
	318800	-33678.648	-1224.670	1.229	0.508	106.10
	319000	-33709.170	-1226.196	1.233	0.509	106.16
	319200	-33796.375	-1230.469	1.236	0.512	106.23
	319400	-33883.581	-1232.910	1.237	0.511	106.30
	319600	-33957.705	-1237.793	1.244	0.510	106.36
	319800	-34005.668	-1240.845	1.245	0.511	106.43
	320000	-34010.028	-1244.812	1.257	0.511	106.50
	320200	-34049.270	-1246.948	1.265	0.517	106.56
	320400	-34097.233	-1249.695	1.256	0.517	106.63
	320600	-34119.035	-1253.357	1.258	0.515	106.70
	320800	-34136.476	-1256.409	1.260	0.514	106.76
	321000	-34123.395	-1258.240	1.261	0.514	106.83
	321200	-34132.115	-1260.681	1.261	0.513	106.90
	321400	-34193.159	-1262.817	1.248	0.511	106.96
	321600	-34228.041	-1265.869	1.258	0.507	107.03
	321800	-34236.762	-1268.005	1.258	0.505	107.10
	322000	-34249.842	-1271.362	1.260	0.506	107.16
	322200	-34284.724	-1273.193	1.219	0.501	107.23
	322400	-34293.445	-1275.635	1.239	0.496	107.30
	322600	-34319.607	-1276.550	1.237	0.496	107.36
	322800	-34337.048	-1277.466	1.240	0.494	107.43
	323000	-34302.165	-1278.992	1.248	0.496	107.50
	323200	-34306.526	-1281.738	1.242	0.493	107.56
	323400	-34358.849	-1283.569	1.244	0.489	107.63
	323600	-34358.849	-1285.095	1.227	0.483	107.70
	323800	-34328.327	-1286.316	1.227	0.481	107.76
	324000	-34319.607	-1289.062	1.201	0.478	107.83
	324200	-34284.724	-1290.283	1.202	0.471	107.90
	324400	-34289.085	-1292.114	1.195	0.467	107.96
	324600	-34276.004	-1292.725	1.195	0.463	108.03
	324800	-34249.842	-1293.640	1.204	0.462	108.10
	325000	-34193.159	-1294.861	1.211	0.461	108.16
	325200	-34180.078	-1295.776	1.212	0.459	108.23
	325400	-34171.358	-1296.997	1.204	0.459	108.30
	325600	-34127.755	-1298.218	1.225	0.460	108.36
	325800	-34097.233	-1299.744	1.206	0.457	108.43
	326000	-34049.270	-1300.964	1.194	0.453	108.50
	326200	-34027.469	-1302.490	1.207	0.450	108.56
	326400	-34049.270	-1304.932	1.198	0.445	108.63
	326600	-34044.910	-1306.763	1.173	0.443	108.70
	326800	-33970.786	-1308.289	1.204	0.441	108.76
	327000	-33901.022	-1307.983	1.202	0.441	108.83
	327200	-33848.698	-1307.983	1.182	0.439	108.90
	327400	-33809.456	-1306.763	1.179	0.435	108.96
	327600	-33752.773	-1306.152	1.193	0.433	109.03
	327800	-33674.288	-1305.237	1.186	0.430	109.10
	328000	-33578.362	-1303.711	1.188	0.429	109.16
	328200	-33482.437	-1302.490	1.180	0.429	109.23
	328400	-33443.194	-1299.744	1.186	0.427	109.30
	328600	-33360.349	-1297.302	1.183	0.426	109.36
	328800	-33242.622	-1295.471	1.181	0.424	109.43
	329000	-33146.697	-1294.556	1.180	0.424	109.50
	329200	-33098.734	-1293.030	1.179	0.426	109.56
	329400	-33137.976	-1293.945	1.165	0.422	109.63
	329600	-33129.256	-1293.335	1.174	0.419	109.70
	329800	-33085.653	-1292.419	1.183	0.421	109.76
	330000	-33020.249	-1293.335	1.154	0.417	109.83
	330200	-32963.566	-1293.335	1.180	0.415	109.90
	330400	-32928.684	-1293.945	1.207	0.417	109.96
	330600	-32876.360	-1293.640	1.206	0.422	110.03
	330800	-32810.957	-1293.335	1.199	0.424	110.10
	331000	-32719.391	-1293.335	1.194	0.421	110.16
	331200	-32636.546	-1293.945	1.212	0.423	110.23
	331400	-32610.385	-1294.556	1.190	0.420	110.30
	331600	-32527.540	-1294.861	1.218	0.418	110.36
	331800	-32449.055	-1293.640	1.200	0.418	110.43
	332000	-32366.210	-1291.504	1.206	0.418	110.50
	332200	-32296.446	-1291.504	1.174	0.414	110.56
	332400	-32217.961	-1291.199	1.198	0.410	110.63
	332600	-32161.278	-1290.283	1.212	0.410	110.70
	332800	-32082.793	-1289.062	1.214	0.411	110.76
	333000	-31982.507	-1288.147	1.195	0.412	110.83
	333200	-31886.581	-1289.062	1.201	0.410	110.90
	333400	-31851.699	-1287.842	1.206	0.408	110.96
	333600	-31781.935	-1287.537	1.200	0.405	111.03
	333800	-31677.289	-1286.011	1.189	0.403	111.10
	334000	-31563.922	-1286.011	1.185	0.400	111.16
	334200	-31476.717	-1286.011	1.179	0.395	111.23
	334400	-31446.195	-1286.011	1.187	0.392	111.30
	334600	-31358.990	-1286.316	1.165	0.388	111.36
	334800	-31263.064	-1286.011	1.167	0.385	111.43
	335000	-31158.418	-1285.095	1.171	0.383	111.50
	335200	-31088.654	-1284.485	1.154	0.380	111.56
	335400	-31040.691	-1284.180	1.163	0.376	111.63
	335600	-30944.765	-1283.569	1.155	0.373	111.70
	335800	-30853.200	-1282.959	1.161	0.368	111.76
	336000	-30744.193	-1281.433	1.167	0.367	111.83
	336200	-30670.069	-1282.043	1.162	0.364	111.90
	336400	-30613.386	-1282.043	1.164	0.363	111.96
	336600	-30513.100	-1281.128	1.172	0.363	112.03
	336800	-30443.335	-1280.518	1.162	0.362	112.10
	337000	-30356.130	-1279.602	1.146	0.357	112.16
	337200	-30282.006	-1278.992	1.144	0.354	112.23
	337400	-30207.881	-1278.687	1.147	0.350	112.30
	337600	-30116.316	-1277.771	1.140	0.349	112.36
	337800	-30033.471	-1275.940	1.136	0.346	112.43
	338000	-29924.464	-1275.330	1.122	0.343	112.50
	338200	-29819.818	-1274.109	1.129	0.339	112.56
	338400	-29745.694	-1273.499	1.131	0.336	112.63
	338600	-29645.408	-1272.583	1.144	0.333	112.70
	338800	-29545.122	-1271.667	1.123	0.333	112.76
	339000	-29431.755	-1269.531	1.136	0.333	112.83
	339200	-29305.308	-1268.005	1.132	0.330	112.90
	339400	-29235.543	-1267.395	1.122	0.326	112.96
	339600	-29130.897	-1265.869	1.129	0.324	113.03
	339800	-29004.450	-1264.343	1.133	0.322	113.10
	340000	-28878.002	-1263.123	1.129	0.320	113.16
	340200	-28768.996	-1261.597	1.140	0.320	113.23
	340400	-28681.790	-1260.986	1.133	0.319	113.30
	340600	-28581.504	-1258.545	1.125	0.315	113.36
	340800	-28446.336	-1257.019	1.116	0.313	113.43
	341000	-28324.249	-1255.493	1.113	0.310	113.50
	341200	-28219.603	-1253.967	1.115	0.307	113.56
	341400	-28132.398	-1252.136	1.118	0.305	113.63
	341600	-28027.751	-1250.305	1.118	0.303	113.70
	341800	-27896.944	-1247.559	1.112	0.302	113.76
	342000	-27748.695	-1246.643	1.100	0.298	113.83
	342200	-27652.769	-1245.117	1.101	0.294	113.90
	342400	-27574.284	-1243.591	1.084	0.289	113.96
	342600	-27465.278	-1242.065	1.093	0.287	114.03
	342800	-27330.110	-1239.929	1.097	0.286	114.10
	343000	-27190.581	-1238.403	1.074	0.283	114.16
	343200	-27085.935	-1236.877	1.068	0.276	114.23
	343400	-26985.649	-1235.352	1.058	0.271	114.30
	343600	-26894.084	-1234.741	1.054	0.266	114.36
	343800	-26750.195	-1233.215	1.062	0.263	114.43
	344000	-26615.027	-1231.689	1.054	0.261	114.50
	344200	-26506.021	-1230.774	1.046	0.257	114.56
	344400	-26414.455	-1228.943	1.037	0.252	114.63
	344600	-26305.449	-1227.722	1.020	0.244	114.70
	344800	-26174.641	-1225.586	1.006	0.238	114.76
	345000	-26039.473	-1224.670	1.021	0.236	114.83
	345200	-25921.746	-1223.450	1.021	0.234	114.90
	345400	-25960.988	-1222.534	1.040	0.233	114.96
	345600	-25995.870	-1224.060	1.046	0.235	115.03
	345800	-25943.547	-1225.281	1.036	0.236	115.10
	346000	-25895.584	-1226.501	1.029	0.234	115.16
	346200	-25847.621	-1228.027	1.025	0.232	115.23
	346400	-25817.100	-1228.027	1.020	0.229	115.30
	346600	-25760.416	-1228.333	1.015	0.227	115.36
	346800	-25690.652	-1227.722	1.034	0.228	115.43
	347000	-25616.528	-1228.943	1.020	0.226	115.50
	347200	-25542.403	-1227.722	1.016	0.222	115.56
	347400	-25503.161	-1228.333	1.017	0.220	115.63
	347600	-25437.757	-1228.027	1.028	0.221	115.70
	347800	-25350.552	-1227.722	1.021	0.221	115.76
	348000	-25285.148	-1227.112	1.014	0.218	115.83
	348200	-25202.303	-1225.586	1.014	0.216	115.90
	348400	-25149.980	-1224.365	1.006	0.214	115.96
	348600	-25075.855	-1222.534	1.013	0.213	116.03
	348800	-24984.290	-1222.229	1.011	0.214	116.10
	349000	-24914.526	-1220.398	1.016	0.214	116.16
	349200	-24840.401	-1219.788	1.020	0.214	116.23
	349400	-24766.277	-1217.957	0.995	0.212	116.30
	349600	-24692.152	-1216.431	1.001	0.208	116.36
	349800	-24609.307	-1214.294	1.012	0.208	116.43
	350000	-24552.624	-1212.769	0.990	0.206	116.50
	350200	-24456.698	-1210.022	0.982	0.204	116.56
	350400	-24400.015	-1207.886	0.996	0.203	116.63
	350600	-24312.810	-1205.444	0.987	0.202	116.70
	350800	-24208.164	-1202.393	0.983	0.202	116.76
	351000	-24151.480	-1202.393	0.983	0.201	116.83
	351200	-24086.076	-1198.120	0.965	0.200	116.90
	351400	-24029.393	-1195.374	0.977	0.197	116.96
	351600	-23924.747	-1192.627	0.959	0.197	117.03
	351800	-23815.740	-1188.965	0.966	0.195	117.10
	352000	-23759.057	-1186.523	0.960	0.192	117.16
	352200	-23702.373	-1184.998	0.966	0.191	117.23
	352400	-23654.411	-1181.946	0.963	0.194	117.30
	352600	-23593.367	-1179.504	0.938	0.194	117.36
	352800	-23453.839	-1176.453	0.968	0.195	117.43
	353000	-23401.515	-1174.011	0.936	0.198	117.50
	353200	-23353.553	-1171.570	0.959	0.197	117.56
	353400	-23296.869	-1167.908	0.946	0.197	117.63
	353600	-23231.465	-1164.551	0.954	0.198	117.70
	353800	-23105.018	-1160.889	0.932	0.197	117.76
	354000	-23061.415	-1158.752	0.951	0.195	117.83
	354200	-22996.011	-1156.311	0.963	0.196	117.90
	354400	-22900.086	-1152.954	0.974	0.198	117.96
	354600	-22873.924	-1150.818	0.952	0.198	118.03
	354800	-22777.998	-1147.766	0.937	0.196	118.10
	355000	-22699.514	-1143.799	0.951	0.197	118.16
	355200	-22642.830	-1141.968	0.955	0.197	118.23
	355400	-22586.147	-1138.306	0.949	0.200	118.30
	355600	-22520.743	-1136.169	0.950	0.201	118.36
	355800	-22455.339	-1131.287	0.941	0.202	118.43
	356000	-22376.854	-1129.456	0.930	0.201	118.50
	356200	-22320.171	-1124.878	0.944	0.199	118.56
	356400	-22285.289	-1120.605	0.936	0.201	118.63
	356600	-22280.929	-1119.385	0.935	0.204	118.70
	356800	-22246.047	-1116.943	0.930	0.203	118.76
	357000	-22307.090	-1116.028	0.940	0.203	118.83
	357200	-22341.972	-1114.502	0.953	0.208	118.90
	357400	-22359.413	-1112.976	0.934	0.212	118.96
	357600	-22341.972	-1109.314	0.949	0.212	119.03
	357800	-22320.171	-1106.567	0.957	0.219	119.10
	358000	-22315.811	-1103.516	0.960	0.223	119.16
	358200	-22328.892	-1101.074	0.958	0.225	119.23
	358400	-22307.090	-1102.295	0.947	0.224	119.30
	358600	-22341.972	-1098.328	0.947	0.227	119.36
	358800	-22381.215	-1096.497	0.955	0.231	119.43
	359000	-22429.177	-1098.938	0.951	0.231	119.50
	359200	-22498.942	-1098.022	0.956	0.233	119.56
	359400	-22533.824	-1095.276	0.951	0.234	119.63
	359600	-22590.507	-1091.919	0.955	0.237	119.70
	359800	-22712.594	-1092.834	0.968	0.239	119.76
	360000	-22834.682	-1094.971	0.955	0.242	119.83
	360200	-22943.688	-1096.497	0.963	0.242	119.90
	360400	-23017.813	-1097.412	0.965	0.245	119.96
	360600	-23135.540	-1097.412	0.967	0.251	120.03
	360800	-23270.708	-1098.022	0.965	0.256	120.10
	361000	-23401.515	-1099.548	0.973	0.260	120.16
	361200	-23484.360	-1099.243	0.975	0.264	120.23
	361400	-23558.485	-1099.548	0.978	0.268	120.30
	361600	-23623.889	-1099.243	0.981	0.272	120.36
	361800	-23636.970	-1099.243	0.978	0.275	120.43
	362000	-23684.932	-1098.633	0.984	0.278	120.50
	362200	-23745.976	-1097.717	0.987	0.281	120.56
	362400	-23789.579	-1097.107	0.978	0.282	120.63
	362600	-23841.902	-1095.886	0.989	0.286	120.70
	362800	-23837.541	-1094.971	0.997	0.288	120.76
	363000	-23885.504	-1093.445	0.996	0.293	120.83
	363200	-23946.548	-1091.919	0.993	0.296	120.90
	363400	-23990.151	-1090.698	0.988	0.296	120.96
	363600	-24025.033	-1086.731	1.002	0.302	121.03
	363800	-24042.474	-1085.510	1.008	0.307	121.10
	364000	-24120.958	-1083.679	1.011	0.310	121.16
	364200	-24177.642	-1082.764	1.000	0.312	121.23
	364400	-24221.244	-1080.017	1.000	0.312	121.30
	364600	-24260.487	-1078.491	0.993	0.312	121.36
	364800	-24273.567	-1076.660	1.005	0.314	121.43
	365000	-24312.810	-1076.050	1.025	0.319	121.50
	365200	-24360.773	-1071.777	1.023	0.324	121.56
	365400	-24360.773	-1068.726	1.028	0.330	121.63
	365600	-24373.853	-1065.369	1.042	0.338	121.70
	365800	-24360.773	-1062.012	1.032	0.340	121.76
	366000	-24373.853	-1058.350	1.041	0.349	121.83
	366200	-24395.655	-1055.603	1.036	0.352	121.90
	366400	-24408.736	-1051.636	1.049	0.356	121.96
	366600	-24408.736	-1047.974	1.049	0.361	122.03
	366800	-24391.294	-1043.701	1.064	0.368	122.10
	367000	-24391.294	-1040.649	1.061	0.373	122.16
	367200	-24400.015	-1036.377	1.069	0.378	122.23
	367400	-24400.015	-1031.799	1.056	0.379	122.30
	367600	-24395.655	-1027.832	1.050	0.378	122.36
	367800	-24378.214	-1024.780	1.050	0.375	122.43
	368000	-24365.133	-1021.118	1.046	0.376	122.50
	368200	-24386.934	-1018.677	1.053	0.376	122.56
	368400	-24378.214	-1016.235	1.072	0.380	122.63
	368600	-24360.773	-1013.184	1.080	0.391	122.70
	368800	-24330.251	-1010.437	1.085	0.396	122.76
	369000	-24325.891	-1009.521	1.074	0.396	122.83
	369200	-24343.332	-1006.775	1.079	0.400	122.90
	369400	-24330.251	-1003.723	1.087	0.402	122.96
	369600	-24317.170	-999.756	1.095	0.407	123.03
	369800	-24273.567	-996.704	1.090	0.412	123.10
	370000	-24256.126	-993.347	1.100	0.416	123.16
	370200	-24269.207	-989.685	1.083	0.416	123.23
	370400	-24264.847	-984.497	1.079	0.413	123.30
	370600	-24225.605	-980.225	1.101	0.415	123.36
	370800	-24216.884	-976.562	1.096	0.420	123.43
	371000	-24212.524	-971.985	1.100	0.425	123.50
	371200	-24221.244	-968.018	1.091	0.423	123.56
	371400	-24208.164	-963.745	1.091	0.423	123.63
	371600	-24186.362	-959.167	1.105	0.425	123.70
	371800	-24142.760	-955.811	1.099	0.428	123.76
	372000	-24151.480	-952.148	1.121	0.435	123.83
	372200	-24251.766	-949.402	1.110	0.439	123.90
	372400	-24421.816	-948.486	1.124	0.445	123.96
	372600	-24522.102	-948.486	1.129	0.449	124.03
	372800	-24574.425	-948.181	1.131	0.453	124.10
	373000	-24635.469	-948.486	1.139	0.457	124.16
	373200	-24687.792	-946.960	1.138	0.462	124.23
	373400	-24696.513	-946.045	1.126	0.464	124.30
	373600	-24709.593	-943.604	1.149	0.468	124.36
	373800	-24705.233	-942.078	1.148	0.468	124.43
	374000	-24722.674	-939.636	1.154	0.471	124.50
	374200	-24748.836	-939.331	1.153	0.475	124.56
	374400	-24748.836	-935.669	1.158	0.475	124.63
	374600	-24744.476	-932.922	1.148	0.478	124.70
	374800	-24705.233	-929.565	1.158	0.481	124.76
	375000	-24700.873	-926.819	1.171	0.485	124.83
	375200	-24700.873	-922.852	1.157	0.486	124.90
	375400	-24674.711	-920.105	1.163	0.486	124.96
	375600	-24648.550	-916.748	1.163	0.488	125.03
	375800	-24604.947	-912.476	1.183	0.495	125.10
	376000	-24591.866	-909.424	1.176	0.500	125.16
	376200	-24583.146	-905.151	1.183	0.502	125.23
	376400	-24552.624	-901.489	1.190	0.505	125.30
	376600	-24513.382	-897.217	1.191	0.510	125.36
	376800	-24478.500	-892.944	1.198	0.513	125.43
	377000	-24452.338	-890.503	1.199	0.513	125.50
	377200	-24430.537	-887.146	1.189	0.513	125.56
	377400	-24404.375	-883.789	1.200	0.514	125.63
	377600	-24365.133	-881.042	1.203	0.511	125.70
	377800	-24330.251	-879.517	1.210	0.514	125.76
	378000	-24330.251	-878.296	1.205	0.515	125.83
	378200	-24356.412	-877.991	1.209	0.513	125.90
	378400	-24465.419	-878.601	1.212	0.512	125.96
	378600	-24517.742	-880.127	1.212	0.512	126.03
	378800	-24539.543	-882.568	1.217	0.513	126.10
	379000	-24561.345	-883.484	1.213	0.512	126.16
	379200	-24587.506	-883.789	1.218	0.512	126.23
	379400	-24596.227	-884.399	1.217	0.512	126.30
	379600	-24587.506	-885.010	1.211	0.512	126.36
	379800	-24561.345	-885.315	1.215	0.510	126.43
	380000	-24574.425	-887.451	1.215	0.508	126.50
	380200	-24561.345	-886.536	1.214	0.508	126.56
	380400	-24578.786	-886.536	1.223	0.507	126.63
	380600	-24552.624	-885.010	1.227	0.508	126.70
	380800	-24539.543	-887.451	1.226	0.508	126.76
	381000	-24548.264	-888.977	1.224	0.506	126.83
	381200	-24552.624	-888.672	1.223	0.504	126.90
	381400	-24548.264	-889.893	1.237	0.505	126.96
	381600	-24517.742	-891.113	1.235	0.507	127.03
	381800	-24491.580	-891.418	1.232	0.507	127.10
	382000	-24530.823	-892.029	1.246	0.508	127.16
	382200	-24482.860	-892.639	1.243	0.507	127.23
	382400	-24465.419	-893.250	1.235	0.507	127.30
	382600	-24404.375	-895.996	1.237	0.506	127.36
	382800	-24391.294	-896.606	1.233	0.504	127.43
	383000	-24382.574	-899.048	1.230	0.498	127.50
	383200	-24347.692	-900.269	1.232	0.493	127.56
	383400	-24317.170	-903.015	1.229	0.489	127.63
	383600	-24273.567	-906.982	1.229	0.486	127.70
	383800	-24229.965	-910.339	1.221	0.482	127.76
	384000	-24216.884	-913.086	1.230	0.479	127.83
	384200	-24173.281	-916.443	1.227	0.477	127.90
	384400	-24138.399	-917.358	1.230	0.475	127.96
	384600	-24077.356	-920.715	1.213	0.468	128.03
	384800	-24042.474	-924.683	1.196	0.459	128.10
	385000	-24016.312	-928.955	1.195	0.450	128.16
	385200	-23972.710	-932.922	1.196	0.441	128.23
	385400	-23916.026	-936.584	1.211	0.439	128.29
	385600	-23828.821	-939.636	1.207	0.437	128.36
	385800	-23802.659	-943.604	1.195	0.434	128.43
	386000	-23754.697	-945.740	1.214	0.432	128.50
	386200	-23706.734	-948.181	1.212	0.431	128.56
	386400	-23650.050	-951.233	1.186	0.423	128.63
	386600	-23554.125	-953.369	1.185	0.416	128.70
	386800	-23484.360	-956.421	1.183	0.410	128.76
	387000	-23440.758	-960.083	1.197	0.407	128.83
	387200	-23370.994	-962.830	1.196	0.404	128.90
	387400	-23301.229	-966.797	1.199	0.402	128.96
	387600	-23205.304	-970.154	1.189	0.397	129.03
	387800	-23126.819	-972.595	1.173	0.392	129.10
	388000	-23087.577	-976.562	1.191	0.387	129.16
	388200	-23009.092	-979.004	1.169	0.379	129.23
	388400	-22926.247	-982.666	1.169	0.372	129.29
	388600	-22825.961	-985.107	1.167	0.366	129.36
	388800	-22743.116	-989.075	1.154	0.359	129.43
	389000	-22677.712	-991.211	1.164	0.353	129.50
	389200	-22599.228	-993.958	1.155	0.349	129.56
	389400	-22516.383	-994.873	1.152	0.345	129.63
	389600	-22411.736	-995.178	1.148	0.341	129.70
	389800	-22324.531	-996.399	1.147	0.337	129.76
	390000	-22267.848	-997.620	1.141	0.333	129.83
	390200	-22176.282	-998.535	1.141	0.329	129.90
	390400	-22075.996	-999.756	1.130	0.324	129.96
	390600	-21953.909	-1000.671	1.126	0.318	130.03
	390800	-21849.263	-1002.808	1.113	0.312	130.10
	391000	-21775.138	-1004.944	1.118	0.304	130.16
	391200	-21683.573	-1007.080	1.100	0.297	130.23
	391400	-21592.008	-1008.301	1.100	0.291	130.29
	391600	-21478.641	-1011.963	1.076	0.283	130.36
	391800	-21391.436	-1013.794	1.075	0.276	130.43
	392000	-21321.671	-1015.930	1.081	0.273	130.50
	392200	-21221.385	-1016.541	1.064	0.268	130.56
	392400	-21177.783	-1018.066	1.059	0.263	130.63
	392600	-21125.460	-1020.203	1.064	0.259	130.70
	392800	-21103.658	-1023.865	1.053	0.254	130.76
	393000	-21103.658	-1027.222	1.043	0.248	130.83
	393200	-21060.056	-1029.968	1.046	0.244	130.90
	393400	-21007.733	-1032.410	1.048	0.242	130.96
	393600	-20937.969	-1033.936	1.035	0.238	131.03
	393800	-20881.285	-1037.292	1.033	0.234	131.10
	394000	-20850.763	-1038.818	1.031	0.229	131.16
	394200	-20802.801	-1041.565	1.023	0.225	131.23
	394400	-20737.397	-1044.312	0.999	0.220	131.29
	394600	-20663.272	-1044.312	1.030	0.219	131.36
	394800	-20606.589	-1045.227	0.992	0.217	131.43
	395000	-20571.707	-1046.753	1.009	0.213	131.50
	395200	-20506.303	-1047.974	0.987	0.207	131.56
	395400	-20440.899	-1048.889	0.987	0.202	131.63
	395600	-20375.495	-1048.584	0.977	0.197	131.70
	395800	-20349.333	-1050.415	0.980	0.195	131.76
	396000	-20318.812	-1051.331	0.976	0.193	131.83
	396200	-20262.128	-1052.246	0.981	0.190	131.90
	396400	-20231.606	-1050.720	0.984	0.192	131.96
	396600	-20161.842	-1052.856	0.983	0.191	132.03
	396800	-20096.438	-1051.025	0.959	0.190	132.10
	397000	-20083.358	-1049.805	0.965	0.188	132.16
	397200	-19948.190	-1046.753	0.952	0.188	132.23
	397400	-19878.425	-1043.701	0.946	0.182	132.29
	397600	-19791.220	-1040.955	0.949	0.181	132.36
	397800	-19747.618	-1039.124	0.948	0.183	132.43
	398000	-19756.338	-1036.987	0.954	0.183	132.50
	398200	-19712.736	-1035.461	0.929	0.182	132.56
	398400	-19660.412	-1032.715	0.947	0.186	132.63
	398600	-19599.369	-1031.494	0.962	0.189	132.70
	398800	-19560.126	-1031.494	0.964	0.193	132.76
	399000	-19533.965	-1027.527	0.951	0.196	132.83
	399200	-19490.362	-1025.085	0.947	0.194	132.90
	399400	-19477.281	-1022.949	0.936	0.194	132.96
	399600	-19424.958	-1019.592	0.937	0.194	133.03
	399800	-19390.076	-1017.151	0.936	0.196	133.10
	400000	-19372.635	-1013.184	0.951	0.199	133.16
	400200	-19333.393	-1009.521	0.940	0.202	133.23
	400400	-19298.511	-1004.028	0.949	0.207	133.29
	400600	-19233.107	-999.146	0.929	0.209	133.36
	400800	-19198.225	-993.652	0.944	0.214	133.43
	401000	-19189.504	-987.854	0.941	0.215	133.50
	401200	-19158.982	-981.445	0.969	0.223	133.56
	401400	-19119.740	-975.037	0.966	0.232	133.63
	401600	-19076.138	-968.018	0.965	0.240	133.70
	401800	-19045.616	-961.304	0.979	0.247	133.76
	402000	-19058.697	-953.064	0.981	0.256	133.83
	402200	-19036.895	-946.045	0.979	0.263	133.90
	402400	-19015.094	-937.805	0.989	0.269	133.96
	402600	-19010.734	-931.091	0.983	0.275	134.03
	402800	-19036.895	-925.293	0.985	0.281	134.10
	403000	-19045.616	-919.495	0.991	0.285	134.16
	403200	-19071.777	-913.391	0.994	0.290	134.23
	403400	-19071.777	-907.593	0.996	0.295	134.29
	403600	-19063.057	-902.100	1.009	0.305	134.36
	403800	-19067.417	-894.470	1.020	0.311	134.43
	404000	-19084.858	-887.146	1.012	0.316	134.50
	404200	-19063.057	-880.432	1.032	0.324	134.56
	404400	-19071.777	-873.108	1.029	0.331	134.63
	404600	-19045.616	-865.784	1.035	0.337	134.70
	404800	-19045.616	-859.070	1.034	0.343	134.76
	405000	-19071.777	-851.746	1.043	0.351	134.83
	405200	-19058.697	-844.421	1.036	0.354	134.90
	405400	-19054.336	-836.792	1.049	0.359	134.96
	405600	-19019.454	-830.994	1.046	0.366	135.03
	405800	-19015.094	-823.669	1.062	0.373	135.10
	406000	-19015.094	-816.956	1.069	0.379	135.16
	406200	-19002.013	-811.768	1.073	0.385	135.23
	406400	-19002.013	-805.664	1.071	0.390	135.29
	406600	-18971.491	-801.392	1.080	0.395	135.36
	406800	-18984.572	-796.204	1.089	0.399	135.43
	407000	-19015.094	-791.321	1.091	0.406	135.50
	407200	-19015.094	-786.743	1.101	0.412	135.56
	407400	-19019.454	-782.166	1.105	0.417	135.63
	407600	-19010.734	-777.283	1.102	0.421	135.70
	407800	-19023.814	-772.095	1.110	0.426	135.76
	408000	-19045.616	-766.602	1.113	0.428	135.83
	408200	-19045.616	-763.550	1.126	0.436	135.90
	408400	-19045.616	-759.277	1.122	0.440	135.96
	408600	-19036.895	-754.395	1.124	0.445	136.03
	408800	-19058.697	-750.732	1.134	0.449	136.10
	409000	-19067.417	-746.155	1.132	0.453	136.16
	409200	-19063.057	-742.188	1.133	0.456	136.23
	409400	-19045.616	-737.000	1.144	0.460	136.29
	409600	-19019.454	-733.032	1.144	0.464	136.36
	409800	-19023.814	-730.896	1.146	0.467	136.43
	410000	-19028.175	-725.403	1.148	0.468	136.50
	410200	-19023.814	-720.825	1.139	0.470	136.56
	410400	-19010.734	-716.553	1.156	0.475	136.63
	410600	-18993.293	-712.891	1.169	0.479	136.70
	410800	-19006.373	-709.229	1.171	0.483	136.76
	411000	-19002.013	-705.566	1.181	0.489	136.83
	411200	-19002.013	-701.904	1.179	0.493	136.90
	411400	-19032.535	-698.547	1.182	0.494	136.96
	411600	-19063.057	-696.716	1.177	0.494	137.03
	411800	-19119.740	-696.716	1.177	0.494	137.10
	412000	-19158.982	-694.580	1.192	0.494	137.16
	412200	-19176.424	-693.359	1.197	0.498	137.23
	412400	-19185.144	-691.223	1.196	0.502	137.29
	412600	-19180.784	-691.833	1.203	0.504	137.36
	412800	-19215.666	-690.613	1.197	0.506	137.43
	413000	-19220.026	-690.308	1.205	0.506	137.50
	413200	-19241.827	-688.782	1.192	0.506	137.56
	413400	-19224.386	-688.477	1.207	0.505	137.63
	413600	-19220.026	-688.171	1.194	0.504	137.70
	413800	-19224.386	-687.256	1.186	0.499	137.76
	414000	-19224.386	-686.951	1.187	0.500	137.83
	414200	-19246.188	-686.035	1.221	0.502	137.90
	414400	-19202.585	-685.730	1.225	0.509	137.96
	414600	-19180.784	-685.425	1.218	0.508	138.03
	414800	-19176.424	-684.814	1.212	0.509	138.10
	415000	-19158.982	-683.594	1.225	0.512	138.16
	415200	-19158.982	-684.204	1.213	0.509	138.23
	415400	-19111.020	-684.814	1.213	0.504	138.29
	415600	-19097.939	-683.899	1.205	0.501	138.36
	415800	-19172.063	-684.509	1.202	0.496	138.43
	416000	-19211.306	-685.425	1.224	0.500	138.50
	416200	-19246.188	-687.256	1.213	0.500	138.56
	416400	-19241.827	-688.477	1.203	0.497	138.63
	416600	-19259.268	-690.613	1.205	0.493	138.70
	416800	-19294.151	-691.528	1.210	0.490	138.76
	417000	-19289.790	-692.139	1.201	0.491	138.83
	417200	-19289.790	-693.970	1.198	0.489	138.90
	417400	-19267.989	-694.885	1.206	0.488	138.96
	417600	-19250.548	-696.716	1.211	0.486	139.03
	417800	-19272.349	-699.158	1.204	0.486	139.10
	418000	-19263.629	-701.599	1.209	0.484	139.16
	418200	-19233.107	-701.904	1.223	0.486	139.23
	418400	-19211.306	-704.651	1.215	0.485	139.29
	418600	-19193.865	-707.703	1.249	0.486	139.36
	418800	-19206.945	-711.670	1.243	0.487	139.43
	419000	-19211.306	-715.027	1.235	0.486	139.50
	419200	-19176.424	-718.994	1.240	0.485	139.56
	419400	-19124.100	-721.130	1.236	0.480	139.63
	419600	-19102.299	-724.792	1.247	0.477	139.70
	419800	-19097.939	-727.844	1.237	0.476	139.76
	420000	-19076.138	-728.760	1.243	0.478	139.83
	420200	-19045.616	-731.201	1.245	0.475	139.90
	420400	-19006.373	-733.643	1.239	0.473	139.96
	420600	-18975.852	-736.694	1.237	0.468	140.03
	420800	-18988.932	-740.967	1.215	0.460	140.10
	421000	-18984.572	-744.934	1.204	0.450	140.16
	421200	-18927.889	-747.986	1.193	0.439	140.23
	421400	-18875.566	-751.343	1.202	0.432	140.29
	421600	-18849.404	-754.395	1.195	0.429	140.36
	421800	-18827.603	-757.751	1.187	0.424	140.43
	422000	-18788.360	-759.888	1.192	0.421	140.50
	422200	-18749.118	-762.634	1.198	0.420	140.56
	422400	-18683.714	-765.686	1.189	0.414	140.63
	422600	-18657.553	-769.043	1.186	0.411	140.70
	422800	-18657.553	-772.705	1.188	0.409	140.76
	423000	-18618.310	-776.062	1.181	0.403	140.83
	423200	-18592.149	-780.029	1.188	0.398	140.90
	423400	-18522.385	-784.607	1.172	0.393	140.96
	423600	-18509.304	-788.879	1.165	0.387	141.03
	423800	-18522.385	-793.152	1.160	0.381	141.10
	424000	-18522.385	-797.729	1.159	0.376	141.16
	424200	-18500.583	-802.002	1.168	0.371	141.23
	424400	-18461.341	-806.885	1.142	0.366	141.29
	424600	-18443.900	-811.768	1.138	0.357	141.36
	424800	-18443.900	-815.125	1.136	0.352	141.43
	425000	-18417.738	-819.397	1.130	0.346	141.50
	425200	-18413.378	-824.280	1.111	0.340	141.56
	425400	-18326.173	-828.247	1.121	0.335	141.63
	425600	-18400.297	-833.740	1.119	0.329	141.70
	425800	-18452.620	-839.233	1.115	0.324	141.76
	426000	-18465.701	-844.421	1.121	0.321	141.83
	426200	-18465.701	-849.609	1.117	0.319	141.90
	426400	-18430.819	-852.966	1.114	0.315	141.96
	426600	-18417.738	-857.849	1.097	0.312	142.03
	426800	-18409.018	-860.291	1.085	0.304	142.10
	427000	-18365.415	-863.953	1.076	0.297	142.16
	427200	-18308.732	-866.699	1.086	0.293	142.23
	427400	-18217.166	-869.141	1.083	0.289	142.29
	427600	-18147.402	-871.277	1.086	0.287	142.36
	427800	-18086.359	-873.718	1.083	0.282	142.43
	428000	-17968.632	-875.244	1.081	0.280	142.50
	428200	-17833.463	-875.244	1.089	0.277	142.56
	428400	-17641.612	-875.244	1.092	0.275	142.63
	428600	-17475.922	-872.803	1.078	0.271	142.70
	428800	-17332.034	-871.582	1.068	0.269	142.76
	429000	-17166.344	-869.141	1.075	0.266	142.83
	429200	-17031.176	-866.089	1.109	0.266	142.90
	429400	-16882.927	-865.784	1.082	0.266	142.96
	429600	-16787.001	-864.563	1.072	0.261	143.03
	429800	-16717.237	-864.868	1.069	0.256	143.10
	430000	-16621.311	-864.563	1.068	0.251	143.16
	430200	-16529.746	-864.868	1.059	0.247	143.23
	430400	-16407.658	-866.089	1.033	0.240	143.29
	430600	-16324.813	-866.699	1.024	0.232	143.36
	430800	-16268.130	-867.920	1.049	0.229	143.43
	431000	-16180.925	-869.141	1.043	0.225	143.50
	431200	-16098.080	-870.056	1.062	0.226	143.56
	431400	-16010.875	-870.361	1.054	0.227	143.63
	431600	-15941.111	-871.277	1.047	0.225	143.70
	431800	-15884.427	-871.887	1.034	0.220	143.76
	432000	-15788.501	-872.498	1.040	0.217	143.83
	432200	-15714.377	-873.718	1.024	0.213	143.90
	432400	-15622.812	-874.939	1.017	0.207	143.96
	432600	-15561.768	-875.854	1.010	0.202	144.03
	432800	-15513.805	-875.244	1.000	0.198	144.10
	433000	-15444.041	-875.244	0.996	0.195	144.16
	433200	-15361.196	-874.634	0.979	0.192	144.23
	433400	-15265.270	-872.498	1.017	0.190	144.29
	433600	-15182.425	-872.498	0.983	0.190	144.36
	433800	-15169.345	-870.056	0.984	0.189	144.43
	434000	-15156.264	-869.141	0.985	0.186	144.50
	434200	-15191.146	-868.835	0.981	0.187	144.56
	434400	-15256.550	-869.751	0.975	0.187	144.63
	434600	-15273.991	-872.192	0.967	0.188	144.70
	434800	-15308.873	-871.277	0.967	0.187	144.76
	435000	-15308.873	-873.413	0.977	0.188	144.83
	435200	-15313.233	-873.413	0.958	0.192	144.90
	435400	-15308.873	-872.498	0.969	0.193	144.96
	435600	-15287.072	-872.498	0.966	0.196	145.03
	435800	-15278.351	-870.972	0.971	0.197	145.10
	436000	-15239.109	-869.141	0.965	0.197	145.16
	436200	-15226.028	-867.004	0.971	0.198	145.23
	436400	-15243.469	-864.563	0.964	0.199	145.29
	436600	-15278.351	-863.647	0.966	0.200	145.36
	436800	-15269.631	-862.427	0.956	0.202	145.43
	437000	-15291.432	-859.375	0.966	0.206	145.50
	437200	-15287.072	-857.544	0.955	0.208	145.56
	437400	-15287.072	-853.882	0.959	0.209	145.63
	437600	-15308.873	-848.083	0.959	0.215	145.70
	437800	-15321.954	-842.285	0.969	0.220	145.76
	438000	-15339.395	-837.708	0.961	0.227	145.83
	438200	-15339.395	-832.520	0.966	0.231	145.90
	438400	-15330.674	-828.552	0.983	0.237	145.96
	438600	-15382.997	-826.416	0.971	0.242	146.03
	438800	-15430.960	-823.975	0.962	0.242	146.10
	439000	-15483.283	-820.007	0.974	0.245	146.16
	439200	-15526.886	-816.956	0.985	0.252	146.23
	439400	-15544.327	-812.988	0.971	0.258	146.29
	439600	-15587.930	-809.631	0.972	0.261	146.36
	439800	-15605.371	-805.664	0.977	0.266	146.43
	440000	-15596.650	-802.002	0.973	0.269	146.50
	440200	-15609.731	-795.898	0.974	0.273	146.56
	440400	-15605.371	-788.879	0.983	0.279	146.63
	440600	-15653.333	-781.250	0.983	0.285	146.70
	440800	-15723.098	-773.926	0.994	0.295	146.76
	441000	-15753.619	-768.127	0.997	0.301	146.83
	441200	-15784.141	-760.193	1.007	0.311	146.90
	441400	-15792.862	-754.395	1.010	0.318	146.96
	441600	-15836.464	-748.901	1.000	0.320	147.03
	441800	-15884.427	-743.103	1.026	0.326	147.10
	442000	-15919.309	-737.915	1.023	0.333	147.16
	442200	-15954.191	-731.201	1.030	0.342	147.23
	442400	-15984.713	-724.182	1.037	0.352	147.29
	442600	-16058.838	-718.994	1.048	0.359	147.36
	442800	-16093.720	-712.891	1.067	0.369	147.43
	443000	-16141.683	-706.787	1.086	0.381	147.50
	443200	-16167.844	-702.515	1.078	0.392	147.56
	443400	-16176.565	-698.242	1.064	0.393	147.63
	443600	-16198.366	-694.885	1.071	0.394	147.70
	443800	-16207.086	-691.528	1.086	0.400	147.76
	444000	-16224.527	-687.256	1.085	0.403	147.83
	444200	-16233.248	-682.678	1.086	0.407	147.90
	444400	-16211.447	-677.490	1.078	0.410	147.96
	444600	-16224.527	-671.692	1.090	0.413	148.03
	444800	-16220.167	-666.504	1.103	0.419	148.10
	445000	-16224.527	-661.011	1.123	0.428	148.16
	445200	-16224.527	-654.907	1.113	0.436	148.23
	445400	-16220.167	-649.414	1.129	0.440	148.29
	445600	-16255.049	-644.836	1.122	0.447	148.36
	445800	-16228.888	-639.343	1.131	0.451	148.43
	446000	-16233.248	-634.766	1.137	0.454	148.50
	446200	-16233.248	-630.188	1.141	0.460	148.56
	446400	-16220.167	-625.610	1.142	0.463	148.63
	446600	-16237.608	-621.338	1.149	0.466	148.70
	446800	-16211.447	-616.150	1.156	0.470	148.76
	447000	-16189.645	-611.877	1.151	0.473	148.83
	447200	-16159.124	-607.605	1.149	0.474	148.90
	447400	-16137.322	-602.722	1.157	0.476	148.96
	447600	-16146.043	-599.060	1.164	0.478	149.03
	447800	-16124.242	-593.872	1.179	0.484	149.10
	448000	-16089.359	-589.294	1.180	0.489	149.16
	448200	-16067.558	-585.327	1.198	0.494	149.23
	448400	-16054.477	-582.886	1.201	0.501	149.29
	448600	-16067.558	-579.834	1.211	0.508	149.36
	448800	-16045.757	-576.172	1.207	0.511	149.43
	449000	-16045.757	-573.730	1.208	0.513	149.50
	449200	-16045.757	-570.984	1.221	0.515	149.56
	449400	-16023.956	-570.374	1.218	0.516	149.63
	449600	-16071.918	-570.068	1.223	0.517	149.70
	449800	-16050.117	-569.458	1.219	0.517	149.76
	450000	-16041.397	-570.068	1.222	0.517	149.83
	450200	-16019.595	-567.322	1.223	0.516	149.90
	450400	-15997.794	-567.932	1.227	0.517	149.96
	450600	-16032.676	-568.237	1.235	0.518	150.03
	450800	-16028.316	-567.627	1.235	0.518	150.10
	451000	-16010.875	-567.322	1.220	0.516	150.16
	451200	-15984.713	-566.711	1.217	0.511	150.23
	451400	-15975.993	-568.542	1.224	0.508	150.29
	451600	-15993.434	-568.542	1.223	0.507	150.36
	451800	-15949.831	-568.237	1.222	0.506	150.43
	452000	-15993.434	-568.848	1.223	0.501	150.50
	452200	-15958.552	-568.848	1.234	0.504	150.56
	452400	-15941.111	-569.763	1.242	0.507	150.63
	452600	-15941.111	-571.289	1.230	0.504	150.70
	452800	-15954.191	-571.899	1.227	0.500	150.76
	453000	-15932.390	-573.730	1.215	0.496	150.83
	453200	-15897.508	-574.951	1.213	0.492	150.90
	453400	-15884.427	-578.003	1.213	0.488	150.96
	453600	-15923.670	-581.055	1.226	0.484	151.03
	453800	-15932.390	-583.496	1.224	0.482	151.10
	454000	-15897.508	-586.548	1.217	0.481	151.16
	454200	-15888.787	-589.600	1.225	0.479	151.23
	454400	-15897.508	-593.567	1.214	0.475	151.29
	454600	-15936.750	-597.534	1.222	0.471	151.36
	454800	-15941.111	-601.807	1.208	0.467	151.43
	455000	-15928.030	-605.469	1.181	0.458	151.50
	455200	-15888.787	-607.300	1.194	0.454	151.56
	455400	-15919.309	-610.046	1.207	0.451	151.63
	455600	-15932.390	-614.319	1.199	0.444	151.70
	455800	-15914.949	-617.676	1.199	0.444	151.76
	456000	-15914.949	-621.338	1.229	0.445	151.83
	456200	-15884.427	-626.831	1.197	0.443	151.90
	456400	-15888.787	-631.409	1.190	0.436	151.96
	456600	-15906.229	-635.376	1.180	0.431	152.03
	456800	-15888.787	-640.869	1.196	0.426	152.10
	457000	-15875.707	-644.531	1.192	0.422	152.16
	457200	-15862.626	-648.499	1.189	0.419	152.23
	457400	-15845.185	-653.076	1.191	0.415	152.29
	457600	-15853.905	-657.959	1.186	0.409	152.36
	457800	-15849.545	-664.062	1.185	0.404	152.43
	458000	-15845.185	-670.166	1.177	0.401	152.50
	458200	-15814.663	-676.270	1.172	0.394	152.56
	458400	-15810.303	-682.983	1.165	0.383	152.63
	458600	-15814.663	-689.697	1.129	0.371	152.70
	458800	-15792.862	-697.021	1.132	0.362	152.76
	459000	-15814.663	-703.125	1.133	0.358	152.83
	459200	-15779.781	-708.618	1.134	0.356	152.90
	459400	-15819.023	-715.027	1.152	0.354	152.96
	459600	-15884.427	-720.215	1.144	0.350	153.03
	459800	-15923.670	-727.234	1.153	0.348	153.10
	460000	-15975.993	-734.863	1.139	0.345	153.16
	460200	-15971.632	-741.882	1.128	0.338	153.23
	460400	-15984.713	-748.901	1.127	0.333	153.29
	460600	-16032.676	-755.310	1.145	0.330	153.36
	460800	-16063.198	-761.414	1.142	0.326	153.43
	461000	-16102.440	-767.517	1.133	0.322	153.50
	461200	-16080.639	-773.926	1.122	0.316	153.56
	461400	-16093.720	-777.893	1.111	0.310	153.63
	461600	-16124.242	-783.386	1.118	0.305	153.70
	461800	-16141.683	-788.879	1.113	0.301	153.76
	462000	-16163.484	-793.152	1.107	0.297	153.83
	462200	-16132.962	-797.729	1.116	0.293	153.90
	462400	-16137.322	-803.833	1.040	0.286	153.96
	462600	-16194.006	-809.326	1.028	0.271	154.03
	462800	-16215.807	-815.125	1.019	0.257	154.10
	463000	-16198.366	-820.923	1.028	0.247	154.16
	463200	-16172.204	-824.890	1.016	0.240	154.23
	463400	-16176.565	-829.468	1.014	0.236	154.29
	463600	-16220.167	-834.656	0.977	0.227	154.36
	463800	-16215.807	-838.623	0.979	0.219	154.43
	464000	-16211.447	-842.285	0.976	0.215	154.50
	464200	-16167.844	-846.863	0.965	0.208	154.56
	464400	-16194.006	-850.830	0.984	0.208	154.63
	464600	-16224.527	-855.103	1.003	0.211	154.70
	464800	-16215.807	-859.375	0.988	0.210	154.76
	465000	-16207.086	-862.427	0.991	0.206	154.83
	465200	-16194.006	-866.699	0.976	0.200	154.90
	465400	-16268.130	-871.582	1.042	0.198	154.96
	465600	-16342.255	-877.686	1.022	0.208	155.03
	465800	-16381.497	-882.568	1.042	0.212	155.10
	466000	-16442.540	-887.756	1.005	0.212	155.16
	466200	-16442.540	-892.334	1.030	0.209	155.23
	466400	-16490.503	-897.217	1.004	0.204	155.29
	466600	-16551.547	-901.794	1.001	0.203	155.36
	466800	-16590.789	-906.067	0.988	0.197	155.43
	467000	-16651.833	-910.034	0.980	0.193	155.50
	467200	-16651.833	-913.696	0.985	0.191	155.56
	467400	-16664.914	-916.748	0.980	0.190	155.63
	467600	-16765.200	-920.410	0.984	0.188	155.70
	467800	-16787.001	-922.546	0.981	0.187	155.76
	468000	-16817.523	-924.072	0.973	0.187	155.83
	468200	-16804.442	-925.293	0.963	0.186	155.90
	468400	-16843.684	-925.903	0.977	0.188	155.96
	468600	-16878.566	-927.124	0.981	0.186	156.03
	468800	-16891.647	-929.565	0.970	0.185	156.10
	469000	-16935.250	-928.650	0.962	0.185	156.16
	469200	-16926.529	-929.565	0.954	0.186	156.23
	469400	-16961.411	-930.786	0.948	0.184	156.29
	469600	-17013.735	-931.702	0.952	0.183	156.36
	469800	-17057.337	-932.312	0.951	0.183	156.43
	470000	-17105.300	-934.448	0.956	0.186	156.50
	470200	-17105.300	-935.669	0.956	0.186	156.56
	470400	-17144.542	-938.110	0.947	0.184	156.63
	470600	-17192.505	-938.416	0.949	0.185	156.70
	470800	-17214.307	-939.941	0.950	0.186	156.76
	471000	-17236.108	-939.026	0.958	0.188	156.83
	471200	-17301.512	-939.331	0.959	0.190	156.90
	471400	-17301.512	-939.636	0.957	0.190	156.96
	471600	-17371.276	-939.636	0.946	0.192	157.03
	471800	-17388.717	-938.721	0.945	0.193	157.10
	472000	-17432.320	-938.110	0.945	0.195	157.16
	472200	-17432.320	-936.890	0.949	0.197	157.23
	472400	-17484.643	-935.364	0.952	0.198	157.29
	472600	-17523.885	-936.279	0.951	0.199	157.36
	472800	-17571.848	-935.974	0.946	0.202	157.43
	473000	-17654.693	-934.143	0.956	0.206	157.50
	473200	-17711.376	-933.533	0.957	0.209	157.56
	473400	-17807.302	-934.143	0.971	0.212	157.63
	473600	-17877.066	-933.533	0.952	0.215	157.70
	473800	-17920.669	-932.312	0.966	0.221	157.76
	474000	-17972.992	-931.396	0.997	0.223	157.83
	474200	-18012.234	-929.871	1.007	0.235	157.90
	474400	-18086.359	-929.565	0.930	0.234	157.96
	474600	-18129.961	-928.955	0.941	0.228	158.03
	474800	-18164.843	-925.293	0.952	0.233	158.10
	475000	-18199.725	-922.241	0.980	0.240	158.16
	475200	-18212.806	-921.021	0.930	0.244	158.23
	475400	-18278.210	-918.884	0.958	0.237	158.29
	475600	-18291.291	-916.748	0.919	0.236	158.36
	475800	-18317.452	-913.086	0.920	0.234	158.43
	476000	-18317.452	-910.034	0.917	0.234	158.50
	476200	-18317.452	-907.288	0.926	0.235	158.56
	476400	-18387.216	-906.372	0.898	0.231	158.63
	476600	-18400.297	-902.100	0.926	0.231	158.70
	476800	-18422.099	-900.574	0.927	0.236	158.76
	477000	-18439.540	-897.827	0.933	0.244	158.83
	477200	-18461.341	-895.996	0.926	0.247	158.90
	477400	-18461.341	-892.944	0.955	0.254	158.96
	477600	-18478.782	-889.893	0.970	0.261	159.03
	477800	-18496.223	-886.230	0.950	0.266	159.10
	478000	-18544.186	-884.399	0.936	0.266	159.16
	478200	-18579.068	-882.568	0.922	0.259	159.23
	478400	-18674.994	-880.432	0.906	0.255	159.29
	478600	-18714.236	-878.906	0.941	0.255	159.36
	478800	-18736.037	-877.686	0.960	0.264	159.43
	479000	-18775.280	-875.549	0.953	0.273	159.50
	479200	-18779.640	-874.634	0.963	0.278	159.56
	479400	-18818.882	-871.277	0.987	0.285	159.63
	479600	-18853.764	-867.920	0.968	0.294	159.70
	479800	-18875.566	-863.953	0.979	0.299	159.76
	480000	-18884.286	-861.206	0.976	0.302	159.83
	480200	-18897.367	-859.070	0.981	0.305	159.90
	480400	-18954.050	-856.934	0.993	0.308	159.96
	480600	-18993.293	-854.797	0.947	0.305	160.03
	480800	-19067.417	-851.746	0.983	0.309	160.10
	481000	-19145.902	-850.830	0.992	0.313	160.16
	481200	-19176.424	-849.304	1.012	0.320	160.23
	481400	-19241.827	-848.083	0.991	0.327	160.29
	481600	-19307.231	-846.558	1.039	0.331	160.36
	481800	-19342.113	-844.421	1.020	0.339	160.43
	482000	-19376.995	-842.285	1.035	0.345	160.50
	482200	-19394.437	-840.759	1.035	0.351	160.56
	482400	-19446.760	-839.844	1.030	0.354	160.63
	482600	-19481.642	-837.708	1.033	0.352	160.70
	482800	-19516.524	-834.045	1.020	0.352	160.76
	483000	-19542.685	-831.604	1.043	0.358	160.83
	483200	-19533.965	-828.857	1.028	0.361	160.90
	483400	-19603.729	-826.721	1.010	0.362	160.96
	483600	-19629.891	-823.975	1.020	0.354	161.03
	483800	-19656.052	-821.533	1.008	0.355	161.10
	484000	-19704.015	-819.702	1.008	0.354	161.16
	484200	-19717.096	-818.787	1.026	0.355	161.23
	484400	-19765.059	-817.871	1.047	0.363	161.29
	484600	-19808.661	-816.345	0.979	0.359	161.36
	484800	-19839.183	-813.904	1.006	0.355	161.43
	485000	-19856.624	-811.157	1.027	0.357	161.50
	485200	-19874.065	-809.326	1.016	0.363	161.56
	485400	-19926.388	-806.580	1.009	0.362	161.63
	485600	-19952.550	-804.443	1.023	0.365	161.70
	485800	-19978.711	-802.002	0.999	0.369	161.76
	486000	-20022.314	-800.476	1.036	0.372	161.83
	486200	-20070.277	-799.255	1.034	0.375	161.90
	486400	-20153.122	-797.424	1.038	0.379	161.96
	486600	-20192.364	-797.729	1.035	0.381	162.03
	486800	-20231.606	-795.898	1.015	0.384	162.10
	487000	-20279.569	-794.067	1.044	0.390	162.16
	487200	-20314.451	-793.152	0.989	0.385	162.23
	487400	-20331.892	-791.016	0.993	0.380	162.29
	487600	-20375.495	-788.574	0.995	0.378	162.36
	487800	-20388.576	-786.133	1.013	0.382	162.43
	488000	-20392.936	-783.386	1.038	0.388	162.50
	488200	-20436.539	-781.860	1.027	0.395	162.56
	488400	-20440.899	-780.029	1.016	0.393	162.63
	488600	-20458.340	-776.978	1.025	0.390	162.70
	488800	-20471.421	-774.231	1.027	0.393	162.76
	489000	-20453.980	-772.095	1.032	0.398	162.83
	489200	-20453.980	-770.264	1.042	0.401	162.90
	489400	-20501.943	-769.043	1.041	0.402	162.96
	489600	-20497.582	-766.907	1.041	0.408	163.03
	489800	-20493.222	-764.771	1.050	0.408	163.10
	490000	-20497.582	-762.329	1.052	0.409	163.16
	490200	-20484.502	-760.193	1.091	0.421	163.23
	490400	-20510.663	-758.057	1.075	0.427	163.29
	490600	-20523.744	-755.615	1.088	0.431	163.36
	490800	-20497.582	-753.784	1.080	0.433	163.43
	491000	-20493.222	-750.732	1.077	0.436	163.50
	491200	-20523.744	-749.207	1.110	0.439	163.56
	491400	-20624.030	-747.375	1.111	0.437	163.63
	491600	-20724.316	-747.986	1.098	0.436	163.70
	491800	-20776.639	-748.901	1.082	0.432	163.76
	492000	-20789.720	-749.817	1.100	0.438	163.83
	492200	-20868.204	-749.512	1.094	0.439	163.90
	492400	-20898.726	-751.343	1.125	0.443	163.96
	492600	-20898.726	-750.427	1.123	0.449	164.03
	492800	-20981.571	-748.291	1.113	0.452	164.10
	493000	-20968.490	-750.427	1.098	0.450	164.16
	493200	-21033.894	-750.427	1.100	0.441	164.23
	493400	-21060.056	-750.732	1.110	0.446	164.30
	493600	-21077.497	-751.953	1.124	0.446	164.36
	493800	-21094.938	-753.174	1.081	0.448	164.43
	494000	-21112.379	-754.089	1.115	0.446	164.50
	494200	-21138.541	-754.395	1.133	0.446	164.56
	494400	-21173.423	-754.700	1.142	0.457	164.63
	494600	-21208.305	-755.310	1.155	0.463	164.70
	494800	-21199.584	-755.920	1.121	0.467	164.76
	495000	-21221.385	-756.836	1.154	0.462	164.83
	495200	-21260.628	-757.751	1.123	0.456	164.90
	495400	-21299.870	-759.277	1.141	0.457	164.96
	495600	-21356.554	-760.803	1.140	0.460	165.03
	495800	-21395.796	-761.719	1.149	0.456	165.10
	496000	-21456.840	-765.991	1.091	0.451	165.16
	496200	-21583.287	-767.822	1.147	0.453	165.23
	496400	-21644.331	-770.264	1.068	0.445	165.30
	496600	-21727.176	-772.400	1.102	0.438	165.36
	496800	-21796.940	-773.010	1.100	0.438	165.43
	497000	-21818.741	-776.978	1.100	0.436	165.50
	497200	-21988.791	-780.945	1.082	0.434	165.56
	497400	-22115.239	-785.217	1.115	0.435	165.63
	497600	-22267.848	-789.490	1.125	0.433	165.70
	497800	-22372.494	-794.678	1.061	0.432	165.76
	498000	-22424.817	-798.035	1.111	0.436	165.83
	498200	-22555.625	-802.307	1.089	0.435	165.90
	498400	-22616.669	-805.969	1.148	0.440	165.96
	498600	-22716.955	-809.326	1.163	0.450	166.03
	498800	-22791.079	-812.683	1.114	0.450	166.10
	499000	-22817.241	-815.125	1.112	0.446	166.16
	499200	-22913.166	-819.397	1.144	0.445	166.23
	499400	-22961.129	-822.754	1.139	0.447	166.30
	499600	-23022.173	-825.500	1.152	0.449	166.36
	499800	-23065.775	-828.552	1.163	0.454	166.43
	500000	-23083.216	-831.909	1.135	0.450	166.50
	500200	-23166.061	-833.130	1.122	0.443	166.56
	500400	-23183.502	-834.656	1.112	0.440	166.63
	500600	-23240.186	-836.792	1.092	0.435	166.70
	500800	-23266.347	-839.844	1.081	0.428	166.76
	501000	-23279.428	-839.539	1.122	0.429	166.83
	501200	-23340.472	-843.811	1.103	0.429	166.90
	501400	-23323.031	-843.506	1.115	0.428	166.96
	501600	-23397.155	-845.642	1.119	0.430	167.03
	501800	-23418.957	-848.389	1.111	0.429	167.10
	502000	-23418.957	-850.525	1.174	0.435	167.16
	502200	-23475.640	-850.830	1.071	0.425	167.23
	502400	-23493.081	-852.661	1.121	0.425	167.30
	502600	-23519.242	-855.103	1.166	0.437	167.36
	502800	-23541.044	-858.765	0.775	0.372	167.43
	503000	-23523.603	-858.154	0.767	0.309	167.50
	503200	-23567.205	-859.375	0.753	0.282	167.56
	503400	-23589.007	-861.206	0.850	0.276	167.63
	503600	-23610.808	-863.037	0.851	0.283	167.70
	503800	-23610.808	-864.258	0.793	0.276	167.76
	504000	-23606.448	-866.089	0.807	0.270	167.83
	504200	-23715.454	-869.141	0.782	0.266	167.90
	504400	-23820.100	-872.803	0.835	0.268	167.96
	504600	-23942.188	-877.991	0.846	0.275	168.03
	504800	-24033.753	-882.263	0.834	0.279	168.10
	505000	-24099.157	-886.230	0.807	0.276	168.16
	505200	-24199.443	-891.724	0.842	0.276	168.23
	505400	-24247.406	-895.386	0.791	0.271	168.30
	505600	-24312.810	-899.048	0.816	0.266	168.36
	505800	-24360.773	-901.184	0.821	0.267	168.43
	506000	-24378.214	-903.320	0.801	0.267	168.50
	506200	-24421.816	-903.320	0.806	0.265	168.56
	506400	-24465.419	-904.541	0.810	0.266	168.63
	506600	-24482.860	-906.677	0.807	0.263	168.70
	506800	-24482.860	-907.898	0.792	0.263	168.76
	507000	-24482.860	-909.729	0.782	0.260	168.83
	507200	-24513.382	-911.865	0.781	0.254	168.90
	507400	-24539.543	-914.917	0.811	0.256	168.96
	507600	-24530.823	-916.443	0.792	0.253	169.03
	507800	-24530.823	-917.969	0.854	0.259	169.10
	508000	-24509.022	-919.495	0.818	0.263	169.16
	508200	-24526.463	-921.021	0.816	0.261	169.23
	508400	-24530.823	-922.546	0.818	0.259	169.30
	508600	-24500.301	-922.852	0.816	0.261	169.36
	508800	-24495.941	-922.852	0.833	0.261	169.43
	509000	-24456.698	-923.767	0.808	0.261	169.50
	509200	-24478.500	-924.072	0.838	0.268	169.56
	509400	-24439.257	-924.683	0.782	0.261	169.63
	509600	-24426.177	-925.293	0.810	0.259	169.70
	509800	-24400.015	-924.377	0.819	0.257	169.76
	510000	-24356.412	-924.683	0.901	0.266	169.83
	510200	-24365.133	-924.072	0.869	0.275	169.90
	510400	-24321.530	-924.072	0.842	0.276	169.96
	510600	-24317.170	-923.462	0.835	0.270	170.03
	510800	-24273.567	-922.852	0.828	0.267	170.10
	511000	-24225.605	-923.157	0.791	0.258	170.16
	511200	-24199.443	-923.462	0.837	0.257	170.23
	511400	-24155.840	-922.852	0.840	0.256	170.30
	511600	-24129.679	-922.546	0.812	0.258	170.36
	511800	-24107.878	-921.936	0.817	0.255	170.43
	512000	-24077.356	-923.462	0.814	0.251	170.50
	512200	-24068.635	-924.377	0.824	0.252	170.56
	512400	-24059.915	-925.293	0.844	0.255	170.63
	512600	-24025.033	-925.293	0.844	0.257	170.70
	512800	-23994.511	-925.903	0.881	0.260	170.76
	513000	-23929.107	-927.124	0.888	0.272	170.83
	513200	-23946.548	-927.429	0.890	0.276	170.90
	513400	-23889.865	-927.734	0.895	0.280	170.96
	513600	-23868.063	-928.040	0.870	0.280	171.03
	513800	-23837.541	-928.345	0.868	0.276	171.10
	514000	-23780.858	-929.565	0.846	0.270	171.16
	514200	-23780.858	-929.871	0.850	0.263	171.23
	514400	-23741.616	-930.481	0.827	0.259	171.30
	514600	-23728.535	-931.396	0.862	0.258	171.36
	514800	-23676.212	-931.396	0.834	0.255	171.43
	515000	-23667.491	-931.702	0.837	0.254	171.50
	515200	-23623.889	-931.396	0.844	0.251	171.56
	515400	-23597.727	-931.396	0.853	0.254	171.63
	515600	-23571.566	-931.091	0.844	0.251	171.70
	515800	-23527.963	-930.786	0.820	0.246	171.76
	516000	-23484.360	-932.007	0.838	0.245	171.83
	516200	-23462.559	-930.786	0.840	0.245	171.90
	516400	-23440.758	-929.871	0.838	0.246	171.96
	516600	-23384.074	-930.176	0.820	0.239	172.03
	516800	-23366.633	-931.396	0.811	0.230	172.10
	517000	-23362.273	-932.617	0.810	0.226	172.16
	517200	-23410.236	-934.448	0.790	0.225	172.23
	517400	-23401.515	-935.059	0.807	0.227	172.30
	517600	-23423.317	-936.890	0.837	0.232	172.36
	517800	-23405.876	-937.195	0.826	0.235	172.43
	518000	-23405.876	-938.721	0.779	0.228	172.50
	518200	-23418.957	-939.941	0.761	0.219	172.56
	518400	-23392.795	-940.552	0.758	0.213	172.63
	518600	-23388.435	-940.857	0.736	0.205	172.70
	518800	-23366.633	-941.162	0.740	0.200	172.76
	519000	-23336.112	-942.078	0.747	0.197	172.83
	519200	-23340.472	-942.078	0.754	0.196	172.90
	519400	-23375.354	-942.078	0.746	0.196	172.96
	519600	-23418.957	-944.214	0.762	0.196	173.03
	519800	-23475.640	-944.824	0.746	0.193	173.10
	520000	-23471.280	-946.960	0.766	0.195	173.16
	520200	-23506.162	-950.317	0.747	0.193	173.23
	520400	-23506.162	-953.064	0.762	0.194	173.30
	520600	-23532.323	-955.505	0.743	0.189	173.36
	520800	-23545.404	-957.642	0.743	0.184	173.43
	521000	-23575.926	-959.778	0.785	0.187	173.50
	521200	-23628.249	-963.135	0.759	0.191	173.56
	521400	-23684.932	-966.492	0.726	0.186	173.63
	521600	-23689.293	-969.849	0.726	0.176	173.70
	521800	-23719.814	-971.680	0.721	0.173	173.76
	522000	-23702.373	-974.731	0.706	0.169	173.83
	522200	-23745.976	-976.562	0.725	0.164	173.90
	522400	-23732.895	-978.699	0.715	0.164	173.96
	522600	-23732.895	-981.750	0.726	0.161	174.03
	522800	-23689.293	-983.582	0.719	0.160	174.10
	523000	-23711.094	-985.107	0.733	0.161	174.16
	523200	-23667.491	-985.718	0.722	0.161	174.23
	523400	-23663.131	-986.328	0.738	0.161	174.30
	523600	-23676.212	-987.549	0.746	0.163	174.36
	523800	-23706.734	-989.685	0.727	0.160	174.43
	524000	-23702.373	-991.821	0.714	0.161	174.50
	524200	-23763.417	-993.042	0.697	0.151	174.56
	524400	-23750.336	-995.178	0.722	0.153	174.63
	524600	-23759.057	-996.094	0.715	0.153	174.70
	524800	-23724.175	-997.620	0.686	0.150	174.76
	525000	-23719.814	-998.230	0.786	0.157	174.83
	525200	-23715.454	-1000.061	0.762	0.162	174.90
	525400	-23711.094	-999.756	0.771	0.167	174.96
	525600	-23667.491	-1000.671	0.758	0.169	175.03
	525800	-23632.609	-1001.892	0.748	0.161	175.10
	526000	-23602.087	-1002.502	0.722	0.155	175.16
	526200	-23567.205	-1002.197	0.720	0.150	175.24
	526400	-23519.242	-1001.282	0.721	0.147	175.30
	526600	-23493.081	-1000.671	0.696	0.144	175.36
	526800	-23445.118	-1000.061	0.672	0.138	175.43
	527000	-23405.876	-1000.671	0.698	0.135	175.50
	527200	-23370.994	-1000.366	0.645	0.124	175.56
	527400	-23344.832	-999.756	0.650	0.115	175.64
	527600	-23475.640	-1000.671	0.667	0.118	175.70
	527800	-23593.367	-1005.859	0.685	0.118	175.76
	528000	-23715.454	-1010.742	0.676	0.119	175.83
	528200	-23850.622	-1015.930	0.690	0.124	175.90
	528400	-23942.188	-1022.644	0.693	0.126	175.96
	528600	-24051.194	-1027.527	0.701	0.126	176.03
	528800	-24077.356	-1032.104	0.700	0.127	176.10
	529000	-24134.039	-1037.292	0.720	0.129	176.16
	529200	-24186.362	-1041.260	0.674	0.124	176.24
	529400	-24234.325	-1045.532	0.699	0.120	176.30
	529600	-24238.685	-1049.194	0.677	0.117	176.36
	529800	-24269.207	-1052.551	0.660	0.111	176.43
	530000	-24282.288	-1054.688	0.646	0.106	176.50
	530200	-24295.369	-1056.519	0.661	0.102	176.56
	530400	-24304.089	-1058.655	0.639	0.097	176.63
	530600	-24308.450	-1061.401	0.624	0.088	176.70
	530800	-24317.170	-1063.232	0.631	0.085	176.76
	531000	-24352.052	-1066.284	0.643	0.084	176.83
	531200	-24408.736	-1068.115	0.633	0.084	176.90
	531400	-24426.177	-1070.251	0.616	0.082	176.96
	531600	-24434.897	-1071.777	0.622	0.081	177.03
	531800	-24404.375	-1072.998	0.633	0.081	177.10
	532000	-24417.456	-1075.134	0.606	0.075	177.16
	532200	-24434.897	-1077.271	0.623	0.073	177.24
	532400	-24443.618	-1079.102	0.646	0.074	177.30
	532600	-24426.177	-1081.543	0.653	0.079	177.36
	532800	-24417.456	-1083.984	0.653	0.079	177.43
	533000	-24408.736	-1085.815	0.619	0.078	177.50
	533200	-24430.537	-1087.646	0.648	0.078	177.56
	533400	-24400.015	-1088.867	0.640	0.081	177.63
	533600	-24391.294	-1089.478	0.687	0.083	177.70
	533800	-24347.692	-1091.003	0.663	0.089	177.76
	534000	-24334.611	-1091.614	0.680	0.089	177.83
	534200	-24347.692	-1093.140	0.678	0.091	177.90
	534400	-24334.611	-1094.360	0.660	0.082	177.96
	534600	-24325.891	-1094.971	0.663	0.084	178.03
	534800	-24277.928	-1095.886	0.634	0.081	178.10
	535000	-24277.928	-1096.802	0.638	0.073	178.16
	535200	-24269.207	-1097.717	0.648	0.073	178.23
	535400	-24277.928	-1099.548	0.680	0.076	178.30
	535600	-24247.406	-1101.074	0.625	0.071	178.36
	535800	-24221.244	-1103.210	0.627	0.067	178.43
	536000	-24225.605	-1104.736	0.643	0.062	178.50
	536200	-24229.965	-1105.957	0.666	0.068	178.56
	536400	-24238.685	-1107.788	0.661	0.071	178.63
	536600	-24243.046	-1109.619	0.634	0.065	178.70
	536800	-24234.325	-1111.450	0.642	0.063	178.76
	537000	-24247.406	-1113.892	0.677	0.064	178.83
	537200	-24286.648	-1115.723	0.674	0.070	178.90
	537400	-24277.928	-1118.164	0.637	0.069	178.96
	537600	-24312.810	-1119.690	0.632	0.061	179.03
	537800	-24299.729	-1122.131	0.639	0.058	179.10
	538000	-24334.611	-1125.183	0.627	0.053	179.16
	538200	-24365.133	-1127.930	0.634	0.049	179.23
	538400	-24369.493	-1128.845	0.661	0.051	179.30
	538600	-24386.934	-1131.592	0.607	0.051	179.36
	538800	-24360.773	-1134.033	0.579	0.039	179.43
	539000	-24400.015	-1136.780	0.591	0.031	179.50
	539200	-24400.015	-1138.306	0.577	0.026	179.56
	539400	-24404.375	-1140.137	0.574	0.019	179.63
	539600	-24408.736	-1141.357	0.614	0.020	179.70
	539800	-24360.773	-1143.494	0.581	0.020	179.76
	540000	-24400.015	-1145.325	0.621	0.026	179.83
	540200	-24400.015	-1146.240	0.610	0.029	179.90
	540400	-24417.456	-1148.682	0.600	0.027	179.96
	540600	-24426.177	-1149.292	0.604	0.026	180.03
	540800	-24395.655	-1151.733	0.618	0.029	180.10
	541000	-24439.257	-1153.870	0.605	0.031	180.16
	541200	-24443.618	-1155.701	0.608	0.025	180.23
	541400	-24461.059	-1158.142	0.583	0.023	180.30
	541600	-24439.257	-1159.668	0.616	0.021	180.36
	541800	-24408.736	-1161.804	0.609	0.021	180.43
	542000	-24452.338	-1164.246	0.611	0.021	180.50
	542200	-24434.897	-1165.771	0.632	0.024	180.56
	542400	-24443.618	-1166.992	0.602	0.023	180.63
	542600	-24461.059	-1168.823	0.610	0.022	180.70
	542800	-24487.220	-1170.654	0.594	0.017	180.76
	543000	-24556.984	-1173.401	0.601	0.015	180.83
	543200	-24565.705	-1175.232	0.590	0.012	180.90
	543400	-24583.146	-1177.673	0.575	0.009	180.96
	543600	-24604.947	-1180.115	0.580	0.004	181.03
	543800	-24631.109	-1182.861	0.605	0.005	181.10
	544000	-24683.432	-1185.608	0.614	0.007	181.16
	544200	-24687.792	-1187.744	0.612	0.010	181.24
	544400	-24713.954	-1190.186	0.587	0.005	181.30
	544600	-24709.593	-1192.322	0.582	0.002	181.36
	544800	-24687.792	-1193.848	0.598	0.002	181.43
	545000	-24709.593	-1195.984	0.602	0.003	181.50
	545200	-24696.513	-1196.899	0.592	0.005	181.56
	545400	-24692.152	-1197.205	0.579	0.006	181.64
	545600	-24670.351	-1198.120	0.599	0.001	181.70
	545800	-24635.469	-1198.730	0.603	0.003	181.76
	546000	-24644.190	-1199.951	0.605	0.003	181.83
	546200	-24618.028	-1200.562	0.607	0.003	181.90
	546400	-24618.028	-1199.951	0.612	0.004	181.96
	546600	-24578.786	-1201.172	0.604	0.006	182.03
	546800	-24535.183	-1200.867	0.612	0.006	182.10
	547000	-24548.264	-1200.867	0.625	0.010	182.16
	547200	-24504.661	-1199.036	0.622	0.014	182.24
	547400	-24487.220	-1198.425	0.614	0.013	182.30
	547600	-24461.059	-1198.120	0.617	0.013	182.36
	547800	-24413.096	-1197.510	0.604	0.014	182.43
	548000	-24400.015	-1196.594	0.600	0.007	182.50
	548200	-24352.052	-1196.289	0.680	0.014	182.56
	548400	-24343.332	-1195.679	0.620	0.016	182.63
	548600	-24291.009	-1195.068	0.596	0.012	182.70
	548800	-24247.406	-1193.848	0.588	0.004	182.76
	549000	-24243.046	-1192.932	0.603	0.004	182.83
	549200	-24203.803	-1192.017	0.619	0.004	182.90
	549400	-24199.443	-1194.458	0.606	0.006	182.96
	549600	-24173.281	-1192.322	0.609	0.004	183.04
	549800	-24147.120	-1193.542	0.618	0.009	183.10
	550000	-24155.840	-1192.017	0.610	0.009	183.16
	550200	-24134.039	-1191.101	0.602	0.008	183.24
	550400	-24125.319	-1188.965	0.615	0.006	183.30
	550600	-24077.356	-1189.270	0.608	0.007	183.36
	550800	-24059.915	-1188.965	0.581	0.001	183.43
	551000	-24051.194	-1189.270	0.578	-0.003	183.50
	551200	-24016.312	-1187.439	0.588	-0.005	183.56
	551400	-23994.511	-1187.134	0.859	0.046	183.63
	551600	-23959.629	-1186.523	0.731	0.056	183.70
	551800	-23894.225	-1184.998	0.773	0.068	183.76
	552000	-23894.225	-1183.167	0.781	0.078	183.83
	552200	-23837.541	-1182.861	0.805	0.087	183.90
	552400	-23820.100	-1180.725	0.755	0.087	183.96
	552600	-23802.659	-1179.810	0.807	0.085	184.04
	552800	-23724.175	-1178.894	0.802	0.097	184.10
	553000	-23724.175	-1177.063	0.809	0.095	184.16
	553200	-23684.932	-1176.453	0.807	0.100	184.23
	553400	-23645.690	-1176.147	0.810	0.104	184.30
	553600	-23610.808	-1173.706	0.814	0.105	184.36
	553800	-23545.404	-1172.791	0.821	0.103	184.43
	554000	-23545.404	-1171.875	0.797	0.103	184.50
	554200	-23514.882	-1169.739	0.774	0.097	184.56
	554400	-23466.919	-1168.213	0.815	0.098	184.64
	554600	-23440.758	-1166.077	0.742	0.096	184.70
	554800	-23370.994	-1163.940	0.766	0.086	184.76
	555000	-23366.633	-1164.551	0.758	0.081	184.84
	555200	-23340.472	-1163.330	0.789	0.081	184.90
	555400	-23288.149	-1162.415	0.771	0.080	184.96
	555600	-23331.751	-1161.194	0.753	0.081	185.04
	555800	-23279.428	-1161.804	0.804	0.085	185.10
	556000	-23288.149	-1159.973	0.804	0.092	185.16
	556200	-23266.347	-1160.583	0.789	0.096	185.24
	556400	-23235.826	-1160.278	0.777	0.092	185.30
	556600	-23222.745	-1159.363	0.775	0.090	185.36
	556800	-23200.944	-1158.447	0.789	0.092	185.43
	557000	-23179.142	-1158.142	0.775	0.090	185.50
	557200	-23148.620	-1156.311	0.734	0.084	185.56
	557400	-23122.459	-1156.006	0.728	0.075	185.64
	557600	-23083.216	-1153.259	0.753	0.072	185.70
	557800	-23057.055	-1153.259	0.760	0.075	185.76
	558000	-23039.614	-1151.733	0.765	0.076	185.84
	558200	-23013.452	-1151.428	0.719	0.072	185.90
	558400	-22982.931	-1150.818	0.746	0.069	185.96
	558600	-22934.968	-1151.123	0.707	0.062	186.03
	558800	-22878.284	-1148.071	0.798	0.067	186.10
	559000	-22891.365	-1147.461	0.824	0.077	186.16
	559200	-22847.762	-1147.156	0.789	0.084	186.24
	559400	-22821.601	-1145.020	0.765	0.083	186.30
	559600	-22769.278	-1144.409	0.771	0.083	186.36
	559800	-22743.116	-1142.578	0.825	0.089	186.44
	560000	-22730.035	-1144.104	0.800	0.088	186.50
	560200	-22699.514	-1138.916	0.786	0.086	186.56
	560400	-22712.594	-1140.442	0.880	0.101	186.64
	560600	-22799.800	-1141.357	0.837	0.110	186.70
	560800	-22900.086	-1142.883	0.811	0.111	186.76
	561000	-23022.173	-1144.714	0.854	0.117	186.83
	561200	-23096.297	-1148.682	0.863	0.125	186.90
	561400	-23161.701	-1151.428	0.818	0.121	186.96
	561600	-23200.944	-1154.480	0.776	0.112	187.03
	561800	-23214.024	-1156.006	0.790	0.101	187.10
	562000	-23270.708	-1158.447	0.805	0.098	187.16
	562200	-23283.788	-1159.668	0.873	0.113	187.24
	562400	-23349.192	-1160.889	0.812	0.114	187.30
	562600	-23414.596	-1163.025	0.793	0.105	187.36
	562800	-23475.640	-1165.771	0.808	0.100	187.43
	563000	-23532.323	-1166.992	0.793	0.098	187.50
	563200	-23606.448	-1168.823	0.795	0.094	187.56
	563400	-23641.330	-1170.654	0.761	0.092	187.64
	563600	-23667.491	-1171.570	0.726	0.087	187.70
	563800	-23667.491	-1173.706	0.765	0.083	187.76
	564000	-23719.814	-1174.316	0.730	0.084	187.83
	564200	-23789.579	-1174.927	0.752	0.087	187.90
	564400	-23767.777	-1176.147	0.743	0.081	187.96
	564600	-23737.255	-1176.453	0.746	0.079	188.03
	564800	-23802.659	-1174.927	0.759	0.082	188.10
	565000	-23911.666	-1178.894	0.748	0.080	188.16
	565200	-23977.070	-1180.725	0.799	0.087	188.24
	565400	-24077.356	-1184.387	0.809	0.097	188.30
	565600	-24094.797	-1186.218	0.827	0.105	188.36
	565800	-24199.443	-1189.575	0.798	0.105	188.44
	566000	-24286.648	-1191.406	0.782	0.104	188.50
	566200	-24317.170	-1194.153	0.736	0.095	188.56
	566400	-24360.773	-1197.205	0.739	0.084	188.63
	566600	-24382.574	-1198.730	0.739	0.080	188.70
	566800	-24400.015	-1200.562	0.721	0.074	188.76
	567000	-24434.897	-1202.087	0.732	0.072	188.83
	567200	-24465.419	-1202.393	0.724	0.073	188.90
	567400	-24434.897	-1202.087	0.736	0.078	188.96
	567600	-24469.779	-1202.393	0.786	0.087	189.04
	567800	-24509.022	-1202.393	0.785	0.094	189.10
	568000	-24500.301	-1204.529	0.801	0.103	189.16
	568200	-24600.587	-1204.834	0.794	0.104	189.24
	568400	-24700.873	-1207.886	0.789	0.103	189.30
	568600	-24722.674	-1209.717	0.787	0.102	189.36
	568800	-24801.159	-1212.769	0.786	0.101	189.43
	569000	-24849.122	-1213.989	0.792	0.100	189.50
	569200	-24870.923	-1215.210	0.794	0.105	189.56
	569400	-24866.563	-1216.431	0.827	0.110	189.63
	569600	-24901.445	-1217.651	0.784	0.106	189.70
	569800	-24931.967	-1218.262	0.776	0.101	189.76
	570000	-24927.606	-1218.872	0.772	0.095	189.84
	570200	-24958.128	-1219.482	0.840	0.103	189.90
	570400	-24953.768	-1218.872	0.791	0.103	189.96
	570600	-24975.569	-1221.619	0.776	0.100	190.04
	570800	-25088.936	-1220.398	0.789	0.099	190.10
	571000	-25202.303	-1225.281	0.784	0.100	190.16
	571200	-25263.346	-1227.722	0.786	0.099	190.24
	571400	-25324.390	-1230.469	0.791	0.099	190.30
	571600	-25367.993	-1232.605	0.796	0.101	190.36
	571800	-25407.235	-1235.046	0.800	0.100	190.43
	572000	-25420.316	-1236.267	0.796	0.098	190.50
	572200	-25429.036	-1236.572	0.792	0.100	190.56
	572400	-25442.117	-1237.793	0.792	0.097	190.64
	572600	-25376.713	-1237.488	0.813	0.100	190.70
	572800	-25385.434	-1237.488	0.790	0.099	190.76
	573000	-25350.552	-1236.267	0.800	0.100	190.84
	573200	-25311.309	-1235.352	0.781	0.099	190.90
	573400	-25280.788	-1235.962	0.778	0.095	190.96
	573600	-25211.023	-1233.215	0.767	0.091	191.04
	573800	-25176.141	-1230.469	0.774	0.088	191.10
	574000	-25128.178	-1228.027	0.769	0.089	191.16
	574200	-25080.216	-1227.722	0.768	0.088	191.24
	574400	-25014.812	-1226.196	0.775	0.090	191.30
	574600	-24923.246	-1224.365	0.775	0.089	191.36
	574800	-24905.805	-1222.534	0.775	0.090	191.43
	575000	-24844.762	-1219.177	0.781	0.089	191.50
	575200	-24774.997	-1216.736	0.768	0.092	191.56
	575400	-24801.159	-1214.905	0.775	0.092	191.64
	575600	-24827.320	-1215.210	0.774	0.090	191.70
	575800	-24840.401	-1217.651	0.777	0.088	191.76
	576000	-24875.283	-1216.431	0.775	0.089	191.84
	576200	-24866.563	-1217.041	0.784	0.092	191.90
	576400	-24818.600	-1216.431	0.775	0.093	191.96
	576600	-24766.277	-1215.210	0.781	0.094	192.03
	576800	-24757.556	-1213.379	0.782	0.094	192.10
	577000	-24692.152	-1212.769	0.778	0.094	192.16
	577200	-24674.711	-1210.938	0.780	0.092	192.24
	577400	-24618.028	-1208.496	0.786	0.094	192.30
	577600	-24539.543	-1207.886	0.798	0.093	192.36
	577800	-24500.301	-1206.665	0.802	0.097	192.44
	578000	-24474.139	-1206.665	0.792	0.096	192.50
	578200	-24417.456	-1204.834	0.814	0.099	192.56
	578400	-24343.332	-1202.087	0.797	0.100	192.64
	578600	-24299.729	-1198.425	0.806	0.103	192.70
	578800	-24212.524	-1196.289	0.794	0.104	192.76
	579000	-24151.480	-1192.932	0.818	0.106	192.83
	579200	-24090.437	-1190.186	0.822	0.113	192.90
	579400	-24068.635	-1187.439	0.820	0.114	192.96
	579600	-23955.268	-1185.608	0.807	0.110	193.04
	579800	-23889.865	-1183.167	0.821	0.113	193.10
	580000	-23811.380	-1181.946	0.815	0.112	193.16
	580200	-23741.616	-1179.504	0.797	0.114	193.24
	580400	-23676.212	-1176.758	0.797	0.108	193.30
	580600	-23558.485	-1174.011	0.789	0.104	193.36
	580800	-23506.162	-1170.654	0.783	0.100	193.44
	581000	-23449.478	-1167.908	0.805	0.102	193.50
	581200	-23397.155	-1164.551	0.800	0.102	193.56
	581400	-23331.751	-1162.109	0.814	0.104	193.64
	581600	-23266.347	-1159.668	0.824	0.109	193.70
	581800	-23218.385	-1157.532	0.828	0.114	193.76
	582000	-23157.341	-1155.396	0.814	0.114	193.84
	582200	-23087.577	-1152.344	0.844	0.120	193.90
	582400	-23048.334	-1150.208	0.823	0.118	193.96
	582600	-22926.247	-1148.682	0.840	0.120	194.04
	582800	-22860.843	-1144.409	0.831	0.125	194.10
	583000	-22795.439	-1142.273	0.810	0.121	194.16
	583200	-22730.035	-1137.390	0.832	0.119	194.24
	583400	-22638.470	-1133.728	0.805	0.120	194.30
	583600	-22494.581	-1130.981	0.841	0.121	194.36
	583800	-22472.780	-1127.014	0.808	0.124	194.44
	584000	-22394.295	-1122.131	0.812	0.125	194.50
	584200	-22285.289	-1118.774	0.825	0.125	194.56
	584400	-22206.804	-1116.333	0.813	0.122	194.64
	584600	-22097.798	-1113.281	0.819	0.121	194.70
	584800	-22028.034	-1109.619	0.815	0.121	194.76
	585000	-21940.828	-1105.957	0.814	0.118	194.84
	585200	-21923.387	-1104.431	0.834	0.122	194.90
	585400	-21836.182	-1101.379	0.839	0.126	194.96
	585600	-21753.337	-1098.022	0.825	0.126	195.04
	585800	-21692.294	-1095.886	0.833	0.126	195.10
	586000	-21609.449	-1092.834	0.846	0.126	195.16
	586200	-21539.684	-1089.783	0.840	0.130	195.24
	586400	-21395.796	-1084.290	0.842	0.132	195.30
	586600	-21225.746	-1079.712	0.841	0.133	195.36
	586800	-21169.062	-1074.219	0.833	0.135	195.43
	587000	-21094.938	-1070.251	0.824	0.132	195.50
	587200	-21033.894	-1066.895	0.833	0.132	195.56
	587400	-20942.329	-1061.707	0.825	0.133	195.64
	587600	-20855.124	-1058.044	0.833	0.134	195.70
	587800	-20815.881	-1055.298	0.820	0.134	195.76
	588000	-20776.639	-1051.941	0.834	0.133	195.84
	588200	-20711.235	-1049.805	0.829	0.134	195.90
	588400	-20667.632	-1046.143	0.827	0.135	195.96
	588600	-20754.838	-1043.701	0.835	0.141	196.04
	588800	-20898.726	-1044.617	0.832	0.139	196.10
	589000	-20955.410	-1047.974	0.823	0.137	196.16
	589200	-20994.652	-1050.720	0.841	0.138	196.24
	589400	-21012.093	-1051.636	0.824	0.139	196.30
	589600	-21012.093	-1049.500	0.812	0.136	196.36
	589800	-21038.255	-1048.584	0.853	0.142	196.43
	590000	-21029.534	-1048.584	0.816	0.145	196.50
	590200	-21033.894	-1048.279	0.784	0.138	196.56
	590400	-21033.894	-1048.584	0.801	0.134	196.64
	590600	-21007.733	-1049.194	0.814	0.133	196.70
	590800	-20999.012	-1047.974	0.793	0.131	196.76
	591000	-20994.652	-1046.753	0.797	0.130	196.84
	591200	-20994.652	-1045.227	0.810	0.132	196.90
	591400	-20964.130	-1045.227	0.811	0.132	196.96
	591600	-20920.528	-1045.532	0.818	0.133	197.04
	591800	-20920.528	-1045.227	0.812	0.134	197.10
	592000	-21160.342	-1044.617	0.820	0.134	197.16
	592200	-21278.069	-1047.974	0.819	0.137	197.24
	592400	-21347.833	-1050.720	0.817	0.140	197.30
	592600	-21378.355	-1053.162	0.808	0.140	197.36
	592800	-21461.200	-1055.603	0.806	0.139	197.44
	593000	-21504.802	-1057.129	0.815	0.138	197.50
	593200	-21504.802	-1058.044	0.814	0.139	197.56
	593400	-21474.281	-1058.350	0.814	0.139	197.64
	593600	-21469.920	-1057.434	0.815	0.140	197.70
	593800	-21504.802	-1057.129	0.815	0.141	197.76
	594000	-21496.082	-1056.824	0.826	0.142	197.84
	594200	-21483.001	-1057.739	0.828	0.144	197.90
	594400	-21469.920	-1058.655	0.831	0.144	197.96
	594600	-21465.560	-1059.570	0.842	0.144	198.04
	594800	-21509.163	-1062.927	0.864	0.148	198.10
	595000	-21500.442	-1063.232	0.852	0.152	198.16
	595200	-21478.641	-1062.012	0.851	0.155	198.24
	595400	-21461.200	-1060.791	0.850	0.157	198.30
	595600	-21435.038	-1060.181	0.845	0.155	198.36
	595800	-21465.560	-1059.570	0.840	0.155	198.44
	596000	-21469.920	-1059.570	0.863	0.159	198.50
	596200	-21487.361	-1057.739	0.829	0.156	198.56
	596400	-21500.442	-1057.739	0.830	0.153	198.64
	596600	-21522.243	-1057.739	0.835	0.154	198.70
	596800	-21570.206	-1059.570	0.853	0.157	198.76
	597000	-21674.853	-1061.096	0.836	0.155	198.84
	597200	-21714.095	-1063.232	0.837	0.152	198.90
	597400	-21722.815	-1065.674	0.840	0.153	198.96
	597600	-21779.499	-1066.895	0.845	0.152	199.04
	597800	-21844.903	-1069.946	0.830	0.149	199.10
	598000	-21879.785	-1071.777	0.825	0.146	199.16
	598200	-21892.866	-1072.083	0.840	0.146	199.24
	598400	-21936.468	-1073.303	0.835	0.146	199.30
	598600	-22093.437	-1075.439	0.824	0.147	199.36
	598800	-22232.966	-1080.017	0.840	0.147	199.44
	599000	-22350.693	-1083.984	0.829	0.149	199.50
	599200	-22424.817	-1087.646	0.847	0.153	199.56
	599400	-22464.060	-1090.698	0.837	0.153	199.64
	599600	-22529.463	-1093.140	0.835	0.149	199.70
	599800	-22607.948	-1095.886	0.804	0.146	199.76
	600000	-22668.992	-1097.717	0.805	0.141	199.84
	600200	-22716.955	-1100.464	0.838	0.144	199.90
	600400	-22760.557	-1103.210	0.822	0.145	199.96
	600600	-22825.961	-1105.347	0.836	0.146	200.04
	600800	-22891.365	-1106.873	0.826	0.148	200.10
	601000	-22956.769	-1109.009	0.829	0.148	200.16
	601200	-22978.570	-1109.619	0.825	0.146	200.24
	601400	-23052.695	-1112.366	0.831	0.145	200.30
	601600	-23314.310	-1115.723	0.831	0.145	200.36
	601800	-23558.485	-1121.826	0.829	0.146	200.44
	602000	-23759.057	-1128.235	0.826	0.146	200.50
	602200	-23924.747	-1134.338	0.826	0.146	200.56
	602400	-24055.554	-1140.442	0.829	0.144	200.64
	602600	-24221.244	-1146.851	0.833	0.146	200.70
	602800	-24365.133	-1152.039	0.827	0.147	200.76
	603000	-24513.382	-1156.006	0.815	0.145	200.84
	603200	-24639.829	-1161.499	0.815	0.140	200.90
	603400	-24744.476	-1166.687	0.830	0.142	200.96
	603600	-24975.569	-1172.485	0.802	0.138	201.04
	603800	-25320.030	-1181.641	0.798	0.133	201.10
	604000	-25616.528	-1190.491	0.802	0.132	201.16
	604200	-25865.062	-1200.256	0.805	0.136	201.24
	604400	-26083.075	-1210.327	0.764	0.129	201.30
	604600	-26340.331	-1220.703	0.795	0.125	201.36
	604800	-26580.145	-1230.469	0.777	0.121	201.43
	605000	-26815.599	-1240.540	0.770	0.119	201.50
	605200	-27016.171	-1249.695	0.777	0.115	201.56
	605400	-27194.942	-1259.460	0.784	0.114	201.64
	605600	-27399.874	-1268.005	0.799	0.114	201.70
	605800	-27626.607	-1276.855	0.790	0.115	201.76
	606000	-27870.782	-1284.485	0.786	0.115	201.84
	606200	-28119.317	-1291.504	0.803	0.113	201.90
	606400	-28298.087	-1300.659	0.798	0.120	201.96
	606600	-28507.380	-1308.289	0.798	0.121	202.04
	606800	-28703.592	-1318.359	0.782	0.120	202.10
	607000	-28912.884	-1326.294	0.793	0.119	202.16
	607200	-29096.015	-1334.534	0.791	0.117	202.24
	607400	-29239.904	-1342.163	0.783	0.115	202.30
	607600	-29423.035	-1351.013	0.784	0.114	202.36
	607800	-29588.724	-1356.506	0.802	0.112	202.44
	608000	-29763.135	-1365.051	0.805	0.114	202.50
	608200	-29959.347	-1372.986	0.787	0.110	202.56
	608400	-30098.875	-1380.005	0.770	0.108	202.64
	608600	-30268.925	-1386.719	0.765	0.105	202.70
	608800	-30425.894	-1394.043	0.755	0.103	202.76
	609000	-30626.466	-1401.672	0.771	0.101	202.84
	609200	-30835.759	-1409.912	0.766	0.100	202.90
	609400	-30966.567	-1415.710	0.770	0.099	202.96
	609600	-31162.778	-1423.340	0.757	0.094	203.04
	609800	-31328.468	-1430.054	0.761	0.096	203.10
	610000	-31489.798	-1436.768	0.758	0.092	203.16
	610200	-31651.127	-1442.871	0.761	0.091	203.24
	610400	-31764.494	-1449.280	0.764	0.092	203.30
	610600	-31965.066	-1452.942	0.765	0.095	203.36
	610800	-32082.793	-1460.266	0.766	0.090	203.44
	611000	-32231.042	-1466.980	0.768	0.092	203.50
	611200	-32370.570	-1472.778	0.758	0.092	203.56
	611400	-32488.297	-1479.492	0.770	0.090	203.64
	611600	-32645.267	-1484.070	0.764	0.093	203.70
	611800	-32771.714	-1488.953	0.785	0.091	203.76
	612000	-32893.802	-1493.835	0.752	0.084	203.84
	612200	-33055.131	-1498.718	0.764	0.084	203.90
	612400	-33133.616	-1504.822	0.767	0.083	203.96
	612600	-33255.703	-1509.399	0.770	0.084	204.04
	612800	-33377.790	-1513.977	0.762	0.086	204.10
	613000	-33464.996	-1518.555	0.762	0.086	204.16
	613200	-33648.126	-1523.132	0.767	0.085	204.24
	613400	-33853.059	-1529.541	0.770	0.086	204.30
	613600	-33992.587	-1535.950	0.737	0.082	204.36
	613800	-34197.519	-1540.833	0.750	0.080	204.44
	614000	-34371.930	-1547.546	0.748	0.081	204.50
	614200	-34502.737	-1552.734	0.780	0.089	204.56
	614400	-34624.825	-1560.364	0.756	0.086	204.64
	614600	-34773.074	-1564.331	0.747	0.078	204.70
	614800	-34908.242	-1569.214	0.773	0.077	204.76
	615000	-35030.329	-1574.707	0.753	0.074	204.84
	615200	-35165.497	-1580.505	0.732	0.070	204.90
	615400	-35296.305	-1585.388	0.730	0.070	204.96
	615600	-35435.833	-1591.187	0.764	0.069	205.04
	615800	-35549.200	-1594.849	0.743	0.073	205.10
	616000	-35675.647	-1598.816	0.742	0.072	205.16
	616200	-35789.014	-1602.478	0.774	0.077	205.24
	616400	-35884.940	-1608.887	0.768	0.081	205.30
	616600	-36015.748	-1610.718	0.775	0.084	205.36
	616800	-36116.034	-1615.601	0.771	0.080	205.44
	617000	-36203.239	-1620.178	0.718	0.077	205.50
	617200	-36334.047	-1623.230	0.758	0.076	205.56
	617400	-36412.531	-1627.808	0.770	0.079	205.64
	617600	-36534.619	-1631.775	0.791	0.087	205.70
	617800	-36665.426	-1635.437	0.822	0.090	205.76
	618000	-36804.955	-1641.541	0.802	0.096	205.84
	618200	-36948.843	-1644.287	0.810	0.100	205.90
	618400	-37053.490	-1648.254	0.779	0.101	205.96
	618600	-37214.819	-1653.442	0.777	0.098	206.04
	618800	-37262.782	-1658.936	0.746	0.089	206.10
	619000	-37371.789	-1663.208	0.752	0.082	206.16
	619200	-37533.118	-1667.175	0.791	0.085	206.24
	619400	-37642.125	-1672.058	0.783	0.087	206.30
	619600	-37755.491	-1673.889	0.793	0.088	206.36
	619800	-37855.777	-1679.382	0.716	0.085	206.44
	620000	-37977.865	-1683.655	0.745	0.081	206.50
	620200	-38078.151	-1687.317	0.842	0.091	206.56
	620400	-38152.275	-1690.674	0.874	0.108	206.64
	620600	-38265.642	-1694.641	0.896	0.121	206.70
